timestamp,PIR_Motion,Accel_X,Accel_Y,Accel_Z
54:24.4,0,0.024,0.007,1.018
54:24.4,0,0.024,0.007,1.017
54:24.4,0,0.024,0.007,1.017
54:24.4,0,0.024,0.007,1.016
54:24.4,0,0.025,0.007,1.016
54:24.4,0,0.025,0.007,1.016
54:24.4,0,0.024,0.007,1.017
54:24.4,0,0.024,0.006,1.017
54:24.4,0,0.024,0.007,1.017
54:24.4,0,0.024,0.007,1.017
54:24.5,0,0.024,0.006,1.017
54:24.7,0,0.024,0.007,1.017
54:24.9,0,0.024,0.006,1.017
54:25.1,0,0.024,0.005,1.018
54:25.3,1,0.024,0.005,1.017
54:25.5,1,0.024,0.005,1.017
54:25.7,1,0.024,0.006,1.017
54:25.9,1,0.024,0.006,1.017
54:26.1,1,0.024,0.007,1.017
54:26.3,0,0.024,0.007,1.017
54:26.5,0,0.024,0.007,1.017
54:26.7,0,0.025,0.006,1.015
54:27.0,0,0.025,0.006,1.015
54:27.2,0,0.024,0.005,1.017
54:27.4,0,0.024,0.005,1.016
54:27.6,0,0.025,0.004,1.016
54:27.8,0,0.024,0.004,1.018
54:28.0,0,0.024,0.005,1.019
54:28.2,0,0.024,0.004,1.017
54:28.4,0,0.024,0.003,1.017
54:28.6,0,0.024,0.004,1.017
54:28.8,0,0.023,0.003,1.019
54:29.0,0,0.024,0.002,1.017
54:29.2,0,0.025,0.002,1.017
54:29.4,0,0.024,0.003,1.018
54:29.6,0,0.024,0.003,1.017
54:29.8,0,0.024,0.003,1.017
54:30.0,1,0.024,0.003,1.017
54:30.2,1,0.024,0.003,1.017
54:30.4,1,0.024,0.003,1.016
54:30.6,1,0.024,0.003,1.017
54:30.8,1,0.024,0.003,1.017
54:31.0,1,0.024,0.003,1.017
54:31.2,0,0.024,0.003,1.017
54:31.4,0,0.024,0.003,1.017
54:31.6,0,0.024,0.003,1.016
54:31.8,0,0.024,0.003,1.017
54:32.0,0,0.024,0.003,1.017
54:32.2,0,0.024,0.003,1.017
54:32.4,0,0.024,0.003,1.017
54:32.6,0,0.024,0.003,1.018
54:32.9,0,0.024,0.003,1.018
54:33.1,0,0.024,0.003,1.018
54:33.3,0,0.024,0.003,1.018
54:33.5,0,0.024,0.002,1.017
54:33.7,0,0.024,0.002,1.016
54:33.9,0,0.024,0.003,1.017
54:34.1,0,0.024,0.003,1.017
54:34.3,0,0.024,0.003,1.017
54:34.5,0,0.024,0.003,1.017
54:34.7,0,0.024,0.003,1.018
54:34.9,0,0.024,0.003,1.017
54:35.1,0,0.024,0.003,1.018
54:35.3,0,0.024,0.003,1.018
54:35.5,0,0.024,0.003,1.017
54:35.7,0,0.024,0.003,1.017
54:35.9,0,0.024,0.003,1.017
54:36.1,0,0.024,0.003,1.017
54:36.3,0,0.024,0.002,1.017
54:36.5,0,0.024,0.003,1.017
54:36.7,0,0.024,0.003,1.018
54:36.9,1,0.024,0.002,1.018
54:37.1,1,0.024,0.003,1.018
54:37.3,1,0.024,0.003,1.017
54:37.5,1,0.024,0.001,1.018
54:37.7,1,0.024,0.002,1.017
54:38.0,1,0.024,0.004,1.015
54:38.2,0,0.023,0.006,1.013
54:38.4,0,0.024,0.008,1.01
54:38.6,0,0.023,0.011,1.008
54:38.8,0,0.023,0.011,1.009
54:39.0,0,0.023,0.011,1.01
54:39.2,0,0.023,0.009,1.012
54:39.4,0,0.022,0.008,1.015
54:39.6,0,0.022,0.007,1.016
54:39.8,0,0.023,0.006,1.014
54:40.0,0,0.023,0.005,1.015
54:40.2,0,0.022,0.006,1.017
54:40.4,0,0.023,0.006,1.016
54:40.6,0,0.023,0.006,1.016
54:40.8,0,0.022,0.006,1.019
54:41.0,0,0.023,0.006,1.018
54:41.2,0,0.023,0.006,1.016
54:41.4,0,0.022,0.006,1.018
54:41.6,0,0.023,0.006,1.018
54:41.8,0,0.023,0.006,1.016
54:42.0,0,0.023,0.006,1.017
54:42.2,1,0.023,0.005,1.018
54:42.4,1,0.025,0.008,1.007
54:42.6,1,0.022,0.004,1.006
54:42.8,1,0.023,0.006,1.003
54:43.0,1,0.024,0.007,1
54:43.3,0,0.023,0.006,1.002
54:43.5,0,0.021,0.004,1.012
54:43.7,0,0.024,0.008,1.013
54:43.9,0,0.023,0.006,1.017
54:44.1,0,0.022,0.005,1.02
54:44.3,0,0.023,0.007,1.018
54:44.5,0,0.023,0.006,1.017
54:44.7,0,0.022,0.006,1.019
54:44.9,0,0.023,0.007,1.019
54:45.1,0,0.023,0.006,1.018
54:45.3,0,0.023,0.007,1.019
54:45.5,0,0.022,0.006,1.019
54:45.7,0,0.022,0.006,1.018
54:45.9,0,0.021,0.008,1.019
54:46.1,0,0.021,0.007,1.019
54:46.3,0,0.021,0.007,1.017
54:46.5,0,0.022,0.009,1.017
54:46.7,0,0.022,0.008,1.017
54:46.9,0,0.022,0.004,1.015
54:47.1,0,0.023,0.006,1.017
54:47.3,0,0.023,0.006,1.017
54:47.5,0,0.023,0.004,1.017
54:47.7,0,0.023,0.006,1.018
54:47.9,0,0.023,0.008,1.02
54:48.1,0,0.023,0.007,1.019
54:48.3,0,0.022,0.006,1.019
54:48.6,0,0.023,0.007,1.018
54:48.8,1,0.023,0.007,1.018
54:49.0,1,0.023,0.006,1.016
54:49.2,1,0.022,0.006,1.015
54:49.4,1,0.023,0.007,1.016
54:49.6,1,0.022,0.006,1.017
54:49.8,0,0.022,0.006,1.016
54:50.0,0,0.023,0.006,1.017
54:50.2,0,0.023,0.006,1.017
54:50.4,0,0.022,0.005,1.016
54:50.6,0,0.022,0.006,1.016
54:50.8,0,0.022,0.006,1.017
54:51.0,0,0.022,0.005,1.017
54:51.2,0,0.022,0.006,1.017
54:51.4,0,0.022,0.007,1.018
54:51.6,0,0.023,0.006,1.019
54:51.8,0,0.023,0.006,1.019
54:52.0,0,0.023,0.007,1.02
54:52.2,0,0.022,0.006,1.02
54:52.4,0,0.023,0.006,1.019
54:52.6,0,0.023,0.006,1.018
54:52.8,0,0.022,0.006,1.016
54:53.0,0,0.023,0.006,1.015
54:53.2,0,0.023,0.006,1.015
54:53.4,0,0.023,0.006,1.015
54:53.6,1,0.023,0.007,1.016
54:53.8,1,0.023,0.007,1.017
54:54.1,1,0.022,0.006,1.016
54:54.3,1,0.022,0.007,1.017
54:54.5,1,0.022,0.007,1.017
54:54.7,0,0.022,0.006,1.016
54:54.9,0,0.022,0.006,1.017
54:55.1,0,0.022,0.006,1.017
54:55.3,0,0.022,0.006,1.017
54:55.5,0,0.022,0.006,1.017
54:55.7,0,0.022,0.006,1.016
54:55.9,0,0.022,0.006,1.017
54:56.1,0,0.022,0.006,1.017
54:56.3,0,0.022,0.006,1.017
54:56.5,0,0.022,0.007,1.018
54:56.7,0,0.022,0.007,1.019
54:56.9,0,0.023,0.007,1.017
54:57.1,0,0.023,0.007,1.017
54:57.3,0,0.023,0.007,1.018
54:57.5,0,0.023,0.006,1.016
54:57.7,0,0.023,0.007,1.016
54:57.9,0,0.022,0.007,1.018
54:58.1,0,0.022,0.007,1.017
54:58.3,0,0.023,0.007,1.017
54:58.5,0,0.023,0.007,1.017
54:58.7,0,0.022,0.007,1.018
54:58.9,0,0.023,0.007,1.017
54:59.1,0,0.023,0.007,1.017
54:59.3,0,0.022,0.006,1.017
54:59.5,0,0.022,0.007,1.017
54:59.8,1,0.022,0.006,1.016
55:00.0,1,0.022,0.006,1.016
55:00.2,1,0.022,0.006,1.016
55:00.4,1,0.023,0.006,1.016
55:00.6,1,0.022,0.006,1.017
55:00.8,0,0.022,0.006,1.017
55:01.0,0,0.022,0.006,1.017
55:01.2,0,0.022,0.007,1.016
55:01.4,0,0.022,0.007,1.016
55:01.6,0,0.022,0.006,1.016
55:01.8,0,0.022,0.007,1.016
55:02.0,0,0.023,0.007,1.016
55:02.2,0,0.022,0.007,1.017
55:02.4,0,0.022,0.007,1.017
55:02.6,0,0.022,0.006,1.018
55:02.8,0,0.023,0.006,1.018
55:03.0,0,0.022,0.006,1.019
55:03.2,0,0.022,0.005,1.018
55:03.4,0,0.023,0.005,1.016
55:03.6,0,0.023,0.006,1.015
55:03.8,0,0.022,0.006,1.015
55:04.0,0,0.023,0.006,1.013
55:04.2,0,0.023,0.005,1.014
55:04.4,0,0.022,0.006,1.016
55:04.6,0,0.022,0.006,1.016
55:04.8,0,0.023,0.007,1.016
55:05.0,0,0.022,0.008,1.018
55:05.2,0,0.022,0.008,1.018
55:05.5,0,0.023,0.007,1.018
55:05.7,1,0.023,0.007,1.018
55:05.9,1,0.022,0.006,1.018
55:06.1,1,0.022,0.007,1.017
55:06.3,1,0.022,0.007,1.017
55:06.5,1,0.022,0.006,1.017
55:06.7,0,0.022,0.006,1.017
55:06.9,0,0.022,0.006,1.017
55:07.1,0,0.022,0.006,1.017
55:07.3,0,0.022,0.006,1.017
55:07.5,0,0.022,0.006,1.017
55:07.7,0,0.022,0.006,1.018
55:07.9,0,0.022,0.007,1.018
55:08.1,0,0.022,0.007,1.018
55:08.3,0,0.022,0.007,1.018
55:08.5,0,0.022,0.007,1.017
55:08.7,0,0.023,0.007,1.017
55:08.9,0,0.022,0.007,1.017
55:09.1,0,0.022,0.007,1.017
55:09.3,0,0.022,0.007,1.017
55:09.5,0,0.022,0.007,1.017
55:09.7,0,0.022,0.007,1.017
55:09.9,0,0.022,0.007,1.017
55:10.1,1,0.022,0.007,1.017
55:10.3,1,0.022,0.007,1.017
55:10.5,1,0.022,0.007,1.017
55:10.7,1,0.022,0.006,1.017
55:10.9,1,0.022,0.007,1.017
55:11.2,0,0.022,0.006,1.017
55:11.4,0,0.022,0.007,1.017
55:11.6,0,0.022,0.006,1.017
55:11.8,0,0.022,0.007,1.017
55:12.0,0,0.022,0.007,1.017
55:12.2,0,0.022,0.007,1.017
55:12.4,0,0.022,0.007,1.018
55:12.6,0,0.022,0.007,1.018
55:12.8,0,0.022,0.007,1.017
55:13.0,0,0.022,0.007,1.018
55:13.2,0,0.022,0.007,1.018
55:13.4,0,0.022,0.006,1.018
55:13.6,0,0.023,0.007,1.018
55:13.8,0,0.023,0.007,1.018
55:14.0,0,0.022,0.006,1.017
55:14.2,0,0.023,0.006,1.017
55:14.4,0,0.023,0.006,1.017
55:14.6,0,0.023,0.007,1.017
55:14.8,0,0.023,0.006,1.017
55:15.0,0,0.023,0.006,1.017
55:15.2,0,0.022,0.006,1.017
55:15.4,0,0.022,0.006,1.017
55:15.6,0,0.022,0.006,1.017
55:15.9,0,0.022,0.007,1.017
55:16.1,0,0.022,0.007,1.017
55:16.3,0,0.022,0.007,1.017
55:16.5,0,0.022,0.007,1.017
55:16.7,0,0.022,0.007,1.017
55:16.9,0,0.022,0.007,1.017
55:17.1,0,0.022,0.007,1.018
55:17.3,0,0.022,0.007,1.018
55:17.5,0,0.022,0.006,1.017
55:17.7,0,0.022,0.007,1.018
55:17.9,0,0.022,0.006,1.018
55:18.1,0,0.022,0.007,1.017
55:18.3,0,0.022,0.007,1.017
55:18.5,0,0.022,0.007,1.017
55:18.7,0,0.022,0.006,1.017
55:18.9,0,0.022,0.007,1.017
55:19.1,0,0.022,0.006,1.018
55:19.3,0,0.022,0.006,1.018
55:19.5,0,0.022,0.006,1.017
55:19.7,1,0.022,0.006,1.018
55:19.9,1,0.022,0.007,1.018
55:20.1,1,0.022,0.007,1.018
55:20.3,1,0.022,0.007,1.018
55:20.5,1,0.022,0.007,1.018
55:20.7,1,0.023,0.007,1.018
55:21.0,0,0.022,0.006,1.017
55:21.2,0,0.023,0.007,1.017
55:21.4,0,0.022,0.007,1.017
55:21.6,0,0.004,-0.034,1.035
55:21.8,0,0.007,-0.039,1.039
55:22.0,0,-0.036,-0.006,1.036
55:22.2,0,-0.086,-0.007,1.029
55:22.4,0,-0.162,-0.011,1.015
55:22.6,0,-0.211,-0.004,0.976
55:22.8,0,-0.233,-0.028,0.97
55:23.0,0,-0.181,0.036,1.026
55:23.2,0,-0.096,0.07,1.045
55:23.4,0,-0.02,0.077,1.072
55:23.6,0,0.047,0.111,1.096
55:23.8,0,0.065,0.142,1.099
55:24.0,0,0.056,0.045,1.045
55:24.2,0,0.022,0.011,1.033
55:24.4,0,0.074,-0.024,1.032
55:24.6,0,0.049,-0.095,1.015
55:24.8,0,-0.024,-0.155,1.004
55:25.0,0,-0.099,-0.205,1
55:25.2,0,-0.175,-0.222,1.037
55:25.4,0,-0.307,-0.189,1
55:25.6,1,-0.227,-0.141,1.022
55:25.8,1,-0.099,-0.148,0.968
55:26.0,1,0.008,-0.251,0.903
55:26.3,1,0.089,-0.35,0.826
55:26.5,1,0.174,-0.26,0.87
55:26.7,0,0.111,-0.2,0.92
55:26.9,0,0.06,-0.125,0.961
55:27.1,0,0.031,0.021,1.024
55:27.3,0,0.03,0.133,1.074
55:27.5,0,0.026,0.042,1.054
55:27.7,0,0.035,0.003,0.996
55:27.9,0,0.031,-0.004,1.018
55:28.1,0,0.028,0.003,1.024
55:28.3,0,0.023,0.009,1.014
55:28.5,0,0.021,0.005,1.024
55:28.7,0,0.02,0.003,1.033
55:28.9,0,0.021,0.01,1.03
55:29.1,0,0.022,0.009,1.03
55:29.3,0,0.022,0.008,1.031
55:29.5,0,0.024,0.012,1.022
55:29.7,0,0.026,0.013,1.013
55:29.9,0,0.026,0.006,1.017
55:30.1,0,0.026,0.006,1.017
55:30.3,1,0.026,0.006,1.017
55:30.5,1,0.026,0.006,1.017
55:30.7,1,0.026,0.006,1.017
55:30.9,1,0.026,0.005,1.017
55:31.1,1,0.026,0.006,1.018
55:31.3,1,0.026,0.006,1.019
55:31.6,0,0.025,0.006,1.02
55:31.8,0,0.025,0.006,1.019
55:32.0,0,0.025,0.007,1.018
55:32.2,0,0.026,0.006,1.017
55:32.4,0,0.024,0.007,1.022
55:32.6,0,0.025,0.006,1.019
55:32.8,0,0.026,0.005,1.016
55:33.0,0,0.025,0.006,1.019
55:33.2,0,0.025,0.007,1.019
55:33.4,0,0.027,0.006,1.012
55:33.6,0,0.026,0.006,1.015
55:33.8,0,0.025,0.008,1.019
55:34.0,0,0.026,0.006,1.015
55:34.2,0,0.026,0.006,1.015
55:34.4,0,0.026,0.007,1.018
55:34.6,0,0.026,0.007,1.017
55:34.8,0,0.026,0.006,1.016
55:35.0,0,0.026,0.007,1.017
55:35.2,0,0.026,0.006,1.018
55:35.4,0,0.025,0.005,1.018
55:35.6,1,0.025,0.006,1.018
55:35.8,1,0.026,0.006,1.017
55:36.0,1,0.025,0.005,1.018
55:36.2,1,0.026,0.006,1.017
55:36.4,1,0.026,0.007,1.015
55:36.6,1,0.026,0.006,1.016
55:36.8,0,0.026,0.007,1.017
55:37.1,0,0.026,0.007,1.016
55:37.3,0,0.026,0.006,1.016
55:37.5,0,0.026,0.007,1.017
55:37.7,0,0.026,0.007,1.018
55:37.9,0,0.026,0.006,1.017
55:38.1,0,0.026,0.006,1.017
55:38.3,0,0.026,0.007,1.018
55:38.5,0,0.025,0.006,1.018
55:38.7,0,0.025,0.006,1.018
55:38.9,0,0.025,0.007,1.017
55:39.1,0,0.025,0.007,1.019
55:39.3,0,0.025,0.009,1.019
55:39.5,0,0.025,0.005,1.02
55:39.7,0,0.024,0.005,1.023
55:39.9,0,0.024,0.005,1.024
55:40.1,0,0.024,0.004,1.023
55:40.3,0,0.025,0.002,1.022
55:40.5,0,0.025,0.006,1.021
55:40.7,0,0.026,0.006,1.018
55:40.9,0,0.026,0.006,1.017
55:41.1,0,0.026,0.006,1.017
55:41.3,0,0.025,0.005,1.018
55:41.5,0,0.025,0.005,1.017
55:41.7,0,0.025,0.005,1.017
55:41.9,1,0.025,0.005,1.018
55:42.1,1,0.025,0.005,1.017
55:42.3,1,0.025,0.005,1.017
55:42.6,1,0.026,0.005,1.017
55:42.8,1,0.025,0.005,1.016
55:43.0,1,0.026,0.005,1.017
55:43.2,0,0.026,0.006,1.017
55:43.4,0,0.026,0.005,1.017
55:43.6,0,0.026,0.006,1.017
55:43.8,0,0.026,0.006,1.018
55:44.0,0,0.026,0.005,1.017
55:44.2,0,0.026,0.006,1.018
55:44.4,0,0.026,0.006,1.017
55:44.6,0,0.026,0.005,1.017
55:44.8,0,0.026,0.006,1.017
55:45.0,0,0.025,0.006,1.017
55:45.2,0,0.025,0.006,1.017
55:45.4,0,0.025,0.006,1.017
55:45.6,0,0.025,0.006,1.017
55:45.8,0,0.025,0.006,1.017
55:46.0,0,0.026,0.005,1.017
55:46.2,0,0.025,0.005,1.017
55:46.4,0,0.025,0.005,1.017
55:46.6,0,0.025,0.005,1.017
55:46.8,0,0.025,0.005,1.017
55:47.0,0,0.025,0.006,1.018
55:47.2,0,0.025,0.006,1.018
55:47.4,1,0.025,0.006,1.018
55:47.7,1,0.025,0.006,1.017
55:47.9,1,0.026,0.006,1.017
55:48.1,1,0.026,0.006,1.017
55:48.3,1,0.026,0.005,1.017
55:48.5,1,0.026,0.005,1.017
55:48.7,0,0.026,0.005,1.017
55:48.9,0,0.026,0.005,1.017
55:49.1,0,0.026,0.005,1.017
55:49.3,0,0.026,0.005,1.017
55:49.5,0,0.026,0.005,1.017
55:49.7,0,0.026,0.005,1.017
55:49.9,0,0.026,0.005,1.017
55:50.1,0,0.026,0.005,1.017
55:50.3,0,0.026,0.005,1.017
55:50.5,0,0.026,0.005,1.017
55:50.7,0,0.026,0.005,1.017
55:50.9,0,0.025,0.005,1.017
55:51.1,0,0.025,0.005,1.017
55:51.3,0,0.026,0.005,1.018
55:51.5,0,0.026,0.005,1.018
55:51.7,0,0.026,0.005,1.018
55:51.9,0,0.026,0.005,1.018
55:52.1,0,0.026,0.005,1.018
55:52.3,0,0.026,0.005,1.018
55:52.5,0,0.026,0.006,1.018
55:52.7,0,0.026,0.006,1.018
55:53.0,1,0.026,0.005,1.018
55:53.2,1,0.026,0.005,1.018
55:53.4,1,0.026,0.005,1.018
55:53.6,1,0.026,0.005,1.018
55:53.8,1,0.026,0.005,1.018
55:54.0,0,0.026,0.005,1.018
55:54.2,0,0.026,0.005,1.018
55:54.4,0,0.026,0.005,1.017
55:54.6,0,0.025,0.005,1.017
55:54.8,0,0.025,0.005,1.017
55:55.0,0,0.025,0.005,1.017
55:55.2,0,0.025,0.005,1.017
55:55.4,0,0.025,0.005,1.017
55:55.6,0,0.026,0.005,1.017
55:55.8,0,0.026,0.005,1.017
55:56.0,0,0.026,0.004,1.017
55:56.2,0,0.026,0.004,1.017
55:56.4,0,0.026,0.005,1.017
55:56.6,0,0.026,0.005,1.017
55:56.8,0,0.026,0.005,1.017
55:57.0,0,0.026,0.005,1.017
55:57.2,0,0.026,0.005,1.018
55:57.4,0,0.026,0.005,1.018
55:57.6,0,0.026,0.005,1.019
55:57.8,0,0.026,0.005,1.02
55:58.0,0,0.026,0.005,1.02
55:58.2,0,0.025,0.004,1.021
55:58.4,0,0.025,0.005,1.023
55:58.7,0,0.025,0.005,1.022
55:58.9,1,0.025,0.005,1.02
55:59.1,1,0.025,0.006,1.021
55:59.3,1,0.025,0.006,1.018
55:59.5,1,0.025,0.005,1.016
55:59.7,1,0.026,0.006,1.017
55:59.9,0,0.026,0.006,1.017
56:00.1,0,0.026,0.005,1.016
56:00.3,0,0.026,0.006,1.018
56:00.5,0,0.026,0.007,1.021
56:00.7,0,0.026,0.006,1.02
56:00.9,0,0.026,0.006,1.02
56:01.1,0,0.026,0.006,1.021
56:01.3,0,0.026,0.006,1.019
56:01.5,0,0.026,0.005,1.017
56:01.7,0,0.025,0.005,1.018
56:01.9,0,0.025,0.005,1.018
56:02.1,0,0.025,0.005,1.017
56:02.3,0,0.025,0.005,1.017
56:02.5,0,0.026,0.005,1.018
56:02.7,0,0.026,0.005,1.018
56:02.9,0,0.025,0.005,1.017
56:03.1,0,0.026,0.006,1.018
56:03.3,0,0.025,0.005,1.018
56:03.5,1,0.025,0.005,1.017
56:03.7,1,0.025,0.005,1.017
56:03.9,1,0.025,0.005,1.017
56:04.1,1,0.025,0.005,1.017
56:04.3,1,0.026,0.005,1.017
56:04.5,0,0.026,0.005,1.017
56:04.7,0,0.026,0.005,1.017
56:05.0,0,0.026,0.006,1.017
56:05.2,0,0.026,0.005,1.017
56:05.4,0,0.026,0.006,1.017
56:05.6,0,0.025,0.005,1.017
56:05.8,0,0.025,0.006,1.018
56:06.0,0,0.026,0.006,1.018
56:06.2,0,0.026,0.005,1.018
56:06.4,0,0.025,0.005,1.018
56:06.6,0,0.026,0.006,1.018
56:06.8,0,0.026,0.005,1.018
56:07.0,0,0.026,0.005,1.018
56:07.2,0,0.026,0.005,1.018
56:07.4,0,0.026,0.005,1.018
56:07.6,0,0.026,0.006,1.018
56:07.8,0,0.026,0.006,1.017
56:08.0,0,0.025,0.005,1.017
56:08.2,0,0.025,0.006,1.018
56:08.4,0,0.025,0.005,1.017
56:08.6,0,0.025,0.005,1.017
56:08.8,0,0.025,0.005,1.017
56:09.0,1,0.026,0.005,1.017
56:09.2,1,0.025,0.005,1.017
56:09.4,1,0.026,0.005,1.017
56:09.6,1,0.026,0.005,1.017
56:09.8,1,0.026,0.005,1.018
56:10.0,0,0.026,0.005,1.018
56:10.2,0,0.026,0.005,1.018
56:10.4,0,0.026,0.005,1.018
56:10.6,0,0.026,0.005,1.017
56:10.8,0,0.026,0.005,1.017
56:11.0,0,0.026,0.005,1.017
56:11.2,0,0.026,0.005,1.017
56:11.4,0,0.026,0.005,1.017
56:11.6,0,0.026,0.005,1.017
56:11.8,0,0.026,0.005,1.017
56:12.1,0,0.026,0.006,1.017
56:12.3,0,0.026,0.006,1.017
56:12.5,0,0.025,0.006,1.017
56:12.7,0,0.026,0.006,1.017
56:12.9,0,0.025,0.006,1.017
56:13.1,0,0.025,0.006,1.017
56:13.3,0,0.026,0.005,1.017
56:13.5,1,0.026,0.005,1.017
56:13.7,1,0.026,0.005,1.017
56:13.9,1,0.025,0.005,1.017
56:14.1,1,0.026,0.006,1.017
56:14.3,1,0.025,0.006,1.017
56:14.5,0,0.026,0.006,1.017
56:14.7,0,0.025,0.006,1.017
56:14.9,0,0.026,0.006,1.017
56:15.1,0,0.026,0.005,1.017
56:15.3,0,0.026,0.005,1.017
56:15.5,0,0.026,0.005,1.017
56:15.7,0,0.026,0.005,1.017
56:15.9,0,0.026,0.006,1.017
56:16.1,0,0.026,0.005,1.017
56:16.3,0,0.025,0.005,1.017
56:16.5,0,0.025,0.005,1.017
56:16.7,0,0.025,0.005,1.017
56:16.9,0,0.025,0.005,1.017
56:17.1,0,0.025,0.005,1.017
56:17.3,0,0.026,0.005,1.017
56:17.5,0,0.026,0.005,1.017
56:17.7,0,0.025,0.005,1.018
56:17.9,0,0.026,0.006,1.018
56:18.1,0,0.026,0.006,1.017
56:18.3,0,0.026,0.006,1.017
56:18.5,0,0.026,0.006,1.017
56:18.8,0,0.026,0.005,1.016
56:19.0,0,0.025,0.005,1.016
56:19.2,0,0.025,0.005,1.017
56:19.4,0,0.025,0.005,1.017
56:19.6,0,0.026,0.005,1.016
56:19.8,0,0.026,0.005,1.017
56:20.0,0,0.026,0.005,1.017
56:20.2,0,0.026,0.005,1.016
56:20.4,0,0.026,0.005,1.017
56:20.6,0,0.026,0.005,1.017
56:20.8,0,0.026,0.005,1.017
56:21.0,0,0.025,0.005,1.017
56:21.2,0,0.025,0.005,1.017
56:21.4,0,0.025,0.005,1.017
56:21.6,0,0.026,0.005,1.017
56:21.8,0,0.026,0.005,1.017
56:22.0,0,0.026,0.005,1.017
56:22.2,0,0.026,0.005,1.017
56:22.4,0,0.026,0.005,1.017
56:22.6,0,0.026,0.005,1.017
56:22.8,0,0.026,0.006,1.017
56:23.0,0,0.026,0.006,1.017
56:23.2,0,0.026,0.006,1.017
56:23.4,0,0.026,0.006,1.017
56:23.6,0,0.026,0.005,1.017
56:23.8,0,0.026,0.005,1.017
56:24.0,0,0.026,0.006,1.017
56:24.2,0,0.026,0.005,1.017
56:24.4,0,0.026,0.005,1.016
56:24.6,0,0.026,0.005,1.016
56:24.8,0,0.026,0.005,1.016
56:25.0,0,0.026,0.005,1.016
56:25.2,0,0.026,0.005,1.016
56:25.5,0,0.026,0.005,1.017
56:25.7,0,0.027,0.008,1.019
56:25.9,0,0.026,0.008,1.019
56:26.1,0,0.025,0.008,1.02
56:26.3,0,0.025,0.008,1.02
56:26.5,0,0.025,0.009,1.02
56:26.7,0,0.024,0.006,1.019
56:26.9,0,0.025,0.006,1.018
56:27.1,0,0.026,0.007,1.017
56:27.3,0,0.026,0.006,1.017
56:27.5,0,0.026,0.006,1.017
56:27.7,0,0.026,0.006,1.016
56:27.9,0,0.026,0.005,1.017
56:28.1,0,0.025,0.006,1.017
56:28.3,1,0.025,0.005,1.016
56:28.5,1,0.026,0.005,1.017
56:28.7,1,0.026,0.006,1.018
56:28.9,1,0.026,0.005,1.018
56:29.1,1,0.026,0.005,1.018
56:29.3,1,0.026,0.006,1.018
56:29.5,0,0.026,0.005,1.016
56:29.7,0,0.026,0.005,1.016
56:29.9,0,0.026,0.006,1.016
56:30.1,0,0.026,0.005,1.016
56:30.3,0,0.026,0.005,1.016
56:30.5,0,0.025,0.006,1.018
56:30.7,0,0.025,0.006,1.017
56:30.9,0,0.025,0.005,1.017
56:31.1,0,0.026,0.006,1.018
56:31.3,0,0.026,0.006,1.018
56:31.5,0,0.026,0.006,1.018
56:31.7,0,0.026,0.006,1.018
56:31.9,0,0.026,0.005,1.017
56:32.1,0,0.026,0.005,1.017
56:32.4,0,0.025,0.005,1.017
56:32.6,0,0.025,0.005,1.017
56:32.8,0,0.025,0.005,1.017
56:33.0,0,0.025,0.005,1.017
56:33.2,0,0.025,0.005,1.017
56:33.4,0,0.026,0.005,1.017
56:33.6,0,0.026,0.005,1.017
56:33.8,0,0.026,0.005,1.017
56:34.0,0,0.026,0.005,1.017
56:34.2,0,0.025,0.005,1.017
56:34.4,0,0.026,0.005,1.017
56:34.6,0,0.026,0.006,1.017
56:34.8,0,0.026,0.006,1.017
56:35.0,0,0.026,0.007,1.017
56:35.2,0,0.026,0.007,1.017
56:35.4,0,0.026,0.006,1.017
56:35.6,0,0.026,0.006,1.016
56:35.8,0,0.026,0.006,1.016
56:36.0,0,0.026,0.006,1.017
56:36.2,0,0.026,0.006,1.017
56:36.4,0,0.026,0.006,1.017
56:36.6,0,0.025,0.005,1.017
56:36.8,0,0.025,0.005,1.018
56:37.0,0,0.026,0.005,1.017
56:37.2,0,0.026,0.005,1.017
56:37.4,0,0.026,0.005,1.018
56:37.6,0,0.026,0.006,1.017
56:37.8,0,0.026,0.006,1.016
56:38.0,0,0.026,0.006,1.017
56:38.2,0,0.026,0.006,1.018
56:38.4,0,0.026,0.006,1.018
56:38.7,0,0.026,0.006,1.017
56:38.9,0,0.026,0.005,1.017
56:39.1,1,0.026,0.005,1.017
56:39.3,1,0.026,0.005,1.016
56:39.5,1,0.026,0.005,1.016
56:39.7,1,0.026,0.005,1.016
56:39.9,1,0.025,0.006,1.017
56:40.1,1,0.025,0.006,1.016
56:40.3,0,0.025,0.006,1.016
56:40.5,0,0.025,0.006,1.017
56:40.7,0,0.025,0.006,1.017
56:40.9,0,0.025,0.005,1.016
56:41.1,0,0.026,0.006,1.017
56:41.3,0,0.025,0.005,1.017
56:41.5,0,0.026,0.005,1.016
56:41.7,0,0.026,0.005,1.017
56:41.9,0,0.025,0.005,1.017
56:42.1,0,0.025,0.005,1.017
56:42.3,0,0.026,0.005,1.016
56:42.5,0,0.026,0.005,1.016
56:42.7,0,0.026,0.005,1.016
56:42.9,0,0.026,0.005,1.017
56:43.1,0,0.026,0.005,1.016
56:43.3,0,0.025,0.005,1.017
56:43.5,1,0.025,0.005,1.017
56:43.7,1,0.025,0.005,1.017
56:43.9,1,0.025,0.005,1.016
56:44.1,1,0.026,0.005,1.016
56:44.3,1,0.026,0.005,1.017
56:44.6,1,0.026,0.005,1.017
56:44.8,0,0.026,0.006,1.017
56:45.0,0,0.026,0.006,1.017
56:45.2,0,0.026,0.006,1.017
56:45.4,0,0.026,0.006,1.017
56:45.6,0,0.026,0.006,1.016
56:45.8,0,0.026,0.006,1.017
56:46.0,0,0.025,0.005,1.017
56:46.2,0,0.025,0.005,1.017
56:46.4,0,0.025,0.005,1.017
56:46.6,0,0.025,0.005,1.018
56:46.8,0,0.025,0.005,1.018
56:47.0,0,0.025,0.005,1.017
56:47.2,0,0.025,0.006,1.017
56:47.4,0,0.025,0.005,1.018
56:47.6,0,0.025,0.006,1.018
56:47.8,0,0.025,0.005,1.018
56:48.0,0,0.025,0.005,1.018
56:48.2,0,0.025,0.005,1.018
56:48.4,0,0.025,0.006,1.017
56:48.6,0,0.025,0.006,1.017
56:48.8,0,0.025,0.007,1.017
56:49.0,0,0.025,0.006,1.016
56:49.2,0,0.026,0.006,1.016
56:49.4,0,0.025,0.006,1.016
56:49.6,0,0.025,0.006,1.016
56:49.8,0,0.025,0.006,1.016
56:50.0,0,0.026,0.006,1.016
56:50.2,0,0.025,0.006,1.016
56:50.4,0,0.026,0.006,1.016
56:50.6,0,0.026,0.006,1.016
56:50.9,0,0.026,0.006,1.016
56:51.1,0,0.026,0.006,1.017
56:51.3,0,0.026,0.006,1.016
56:51.5,0,0.026,0.006,1.017
56:51.7,0,0.025,0.005,1.017
56:51.9,0,0.025,0.005,1.017
56:52.1,0,0.025,0.005,1.017
56:52.3,0,0.025,0.005,1.017
56:52.5,0,0.025,0.005,1.017
56:52.7,0,0.025,0.006,1.017
56:52.9,0,0.025,0.006,1.017
56:53.1,0,0.025,0.006,1.017
56:53.3,0,0.025,0.006,1.017
56:53.5,0,0.025,0.006,1.017
56:53.7,0,0.025,0.006,1.017
56:53.9,0,0.025,0.006,1.017
56:54.1,0,0.025,0.006,1.017
56:54.3,0,0.025,0.006,1.017
56:54.5,0,0.025,0.006,1.017
56:54.7,0,0.025,0.006,1.017
56:54.9,0,0.025,0.006,1.016
56:55.1,0,0.025,0.006,1.016
56:55.3,0,0.025,0.006,1.016
56:55.5,0,0.025,0.006,1.016
56:55.7,0,0.025,0.006,1.016
56:55.9,0,0.024,0.007,1.016
56:56.1,0,0.025,0.007,1.016
56:56.3,0,0.024,0.007,1.016
56:56.5,0,0.024,0.006,1.016
56:56.7,0,0.024,0.007,1.016
56:56.9,0,0.024,0.006,1.016
56:57.1,0,0.024,0.007,1.016
56:57.3,0,0.024,0.007,1.016
56:57.5,0,0.024,0.007,1.017
56:57.7,0,0.025,0.007,1.017
56:58.0,0,0.025,0.007,1.017
56:58.2,0,0.025,0.007,1.017
56:58.4,0,0.024,0.007,1.017
56:58.6,0,0.024,0.007,1.017
56:58.8,0,0.024,0.007,1.017
56:59.0,0,0.024,0.007,1.017
56:59.2,0,0.024,0.007,1.017
56:59.4,0,0.024,0.007,1.016
56:59.6,0,0.025,0.007,1.016
56:59.8,0,0.025,0.006,1.016
57:00.0,0,0.024,0.006,1.016
57:00.2,0,0.024,0.006,1.016
57:00.4,0,0.024,0.006,1.016
57:00.6,0,0.024,0.007,1.016
57:00.8,0,0.024,0.007,1.016
57:01.0,0,0.024,0.007,1.016
57:01.2,0,0.024,0.007,1.016
57:01.4,0,0.024,0.007,1.016
57:01.6,0,0.024,0.007,1.017
57:01.8,0,0.024,0.007,1.017
57:02.0,0,0.024,0.007,1.017
57:02.2,0,0.024,0.007,1.017
57:02.4,0,0.024,0.007,1.017
57:02.6,0,0.024,0.007,1.017
57:02.8,0,0.024,0.007,1.017
57:03.0,0,0.024,0.007,1.017
57:03.2,0,0.024,0.007,1.017
57:03.4,0,0.024,0.007,1.016
57:03.6,0,0.025,0.007,1.017
57:03.8,0,0.025,0.006,1.017
57:04.0,0,0.025,0.007,1.017
57:04.2,0,0.025,0.007,1.017
57:04.4,0,0.025,0.007,1.018
57:04.6,0,0.024,0.007,1.018
57:04.8,0,0.024,0.007,1.017
57:05.0,0,0.024,0.007,1.018
57:05.3,0,0.024,0.007,1.017
57:05.5,0,0.024,0.007,1.017
57:05.7,0,0.024,0.006,1.017
57:05.9,0,0.024,0.006,1.017
57:06.1,0,0.024,0.006,1.017
57:06.3,0,0.024,0.006,1.017
57:06.5,0,0.024,0.007,1.017
57:06.7,0,0.024,0.007,1.017
57:06.9,0,0.024,0.007,1.017
57:07.1,0,0.024,0.007,1.017
57:07.3,0,0.024,0.007,1.016
57:07.5,0,0.024,0.007,1.016
57:07.7,0,0.024,0.007,1.016
57:07.9,0,0.024,0.007,1.016
57:08.1,0,0.024,0.006,1.016
57:08.3,0,0.024,0.007,1.017
57:08.5,0,0.024,0.007,1.016
57:08.7,0,0.024,0.007,1.016
57:08.9,0,0.024,0.007,1.017
57:09.1,0,0.024,0.007,1.017
57:09.3,0,0.024,0.007,1.017
57:09.5,0,0.024,0.007,1.017
57:09.7,0,0.024,0.007,1.017
57:09.9,0,0.024,0.007,1.016
57:10.1,0,0.024,0.007,1.016
57:10.3,0,0.024,0.008,1.017
57:10.5,0,0.023,0.008,1.017
57:10.7,0,0.024,0.007,1.017
57:10.9,0,0.024,0.007,1.016
57:11.1,0,0.024,0.006,1.017
57:11.3,0,0.024,0.006,1.016
57:11.5,0,0.025,0.007,1.015
57:11.7,0,0.024,0.007,1.016
57:12.0,0,0.024,0.007,1.016
57:12.2,0,0.024,0.008,1.016
57:12.4,0,0.024,0.008,1.016
57:12.6,0,0.023,0.007,1.016
57:12.8,0,0.024,0.007,1.016
57:13.0,0,0.024,0.007,1.016
57:13.2,0,0.024,0.007,1.016
57:13.4,0,0.024,0.007,1.016
57:13.6,0,0.024,0.007,1.016
57:13.8,0,0.024,0.007,1.017
57:14.0,0,0.024,0.007,1.017
57:14.2,0,0.024,0.007,1.016
57:14.4,1,0.024,0.007,1.016
57:14.6,1,0.024,0.007,1.017
57:14.8,1,0.025,0.007,1.017
57:15.0,1,0.024,0.007,1.016
57:15.2,1,0.024,0.007,1.016
57:15.4,1,0.024,0.007,1.016
57:15.6,0,0.024,0.007,1.016
57:15.8,0,0.023,0.008,1.016
57:16.0,0,0.024,0.008,1.016
57:16.2,0,0.024,0.007,1.017
57:16.4,0,0.024,0.007,1.016
57:16.6,0,0.024,0.008,1.017
57:16.8,0,0.024,0.007,1.017
57:17.0,0,0.024,0.007,1.017
57:17.2,0,0.024,0.008,1.017
57:17.4,0,0.024,0.008,1.017
57:17.6,0,0.024,0.007,1.017
57:17.8,0,0.024,0.007,1.016
57:18.0,0,0.024,0.008,1.016
57:18.2,0,0.024,0.007,1.016
57:18.4,0,0.024,0.008,1.016
57:18.6,0,0.024,0.007,1.016
57:18.8,0,0.024,0.007,1.017
57:19.0,0,0.024,0.007,1.017
57:19.3,0,0.024,0.007,1.016
57:19.5,0,0.024,0.007,1.017
57:19.7,1,0.024,0.007,1.017
57:19.9,1,0.024,0.008,1.016
57:20.1,1,0.024,0.008,1.014
57:20.3,1,0.024,0.007,1.014
57:20.5,1,0.024,0.007,1.015
57:20.7,1,0.023,0.007,1.015
57:20.9,0,0.024,0.007,1.014
57:21.1,0,0.024,0.007,1.016
57:21.3,0,0.023,0.008,1.018
57:21.5,0,0.024,0.007,1.016
57:21.7,0,0.024,0.007,1.016
57:21.9,0,0.024,0.007,1.017
57:22.1,0,0.024,0.007,1.017
57:22.3,0,0.024,0.007,1.016
57:22.5,0,0.024,0.008,1.017
57:22.7,0,0.024,0.007,1.017
57:22.9,0,0.024,0.008,1.017
57:23.1,0,0.024,0.03,1.001
57:23.3,0,0.024,0.039,1.002
57:23.5,0,0.022,0.046,1.002
57:23.7,0,0.022,0.045,1.001
57:23.9,0,0.022,0.044,1
57:24.1,0,0.022,0.021,1.016
57:24.3,1,0.021,0.011,1.015
57:24.5,1,0.023,0.005,1.014
57:24.7,1,0.023,0.005,1.014
57:24.9,1,0.023,0.007,1.016
57:25.1,1,0.023,0.007,1.016
57:25.3,0,0.023,0.007,1.016
57:25.5,0,0.023,0.006,1.017
57:25.7,0,0.023,0.007,1.017
57:25.9,0,0.023,0.007,1.017
57:26.1,0,0.023,0.006,1.017
57:26.3,0,0.023,0.006,1.017
57:26.5,0,0.023,0.007,1.017
57:26.8,0,0.023,0.007,1.017
57:27.0,0,0.023,0.007,1.017
57:27.2,0,0.023,0.007,1.017
57:27.4,0,0.023,0.007,1.017
57:27.6,0,0.023,0.007,1.017
57:27.8,0,0.023,0.007,1.017
57:28.0,0,0.023,0.006,1.017
57:28.2,0,0.023,0.006,1.017
57:28.4,0,0.023,0.007,1.016
57:28.6,0,0.023,0.007,1.016
57:28.8,0,0.023,0.007,1.017
57:29.0,0,0.022,0.007,1.017
57:29.2,0,0.022,0.007,1.017
57:29.4,1,0.022,0.007,1.016
57:29.6,1,0.022,0.006,1.016
57:29.8,1,0.022,0.006,1.016
57:30.0,1,0.022,0.006,1.016
57:30.2,1,0.023,0.006,1.017
57:30.4,1,0.023,0.007,1.016
57:30.6,0,0.023,0.007,1.016
57:30.8,0,0.023,0.007,1.016
57:31.0,0,0.023,0.007,1.015
57:31.2,0,0.023,0.007,1.016
57:31.4,0,0.022,0.006,1.017
57:31.6,0,0.023,0.007,1.016
57:31.8,0,0.023,0.006,1.017
57:32.0,0,0.022,0.006,1.017
57:32.2,0,0.023,0.006,1.016
57:32.4,0,0.023,0.006,1.016
57:32.6,0,0.023,0.006,1.016
57:32.8,0,0.023,0.006,1.016
57:33.0,0,0.023,0.006,1.016
57:33.2,0,0.023,0.006,1.017
57:33.5,0,0.023,0.006,1.017
57:33.7,0,0.023,0.006,1.017
57:33.9,0,0.023,0.006,1.017
57:34.1,0,0.023,0.006,1.017
57:34.3,0,0.023,0.006,1.017
57:34.5,0,0.023,0.007,1.017
57:34.7,0,0.023,0.007,1.017
57:34.9,0,0.023,0.007,1.017
57:35.1,0,0.023,0.007,1.017
57:35.3,0,0.023,0.007,1.017
57:35.5,0,0.023,0.006,1.017
57:35.7,0,0.023,0.007,1.018
57:35.9,0,0.023,0.006,1.017
57:36.1,0,0.023,0.007,1.017
57:36.3,0,0.023,0.006,1.017
57:36.5,0,0.023,0.006,1.016
57:36.7,0,0.023,0.006,1.017
57:36.9,0,0.023,0.006,1.017
57:37.1,0,0.023,0.006,1.016
57:37.3,0,0.023,0.006,1.017
57:37.5,1,0.023,0.007,1.017
57:37.7,1,0.022,0.007,1.016
57:37.9,1,0.023,0.007,1.017
57:38.1,1,0.023,0.007,1.017
57:38.3,1,0.023,0.007,1.016
57:38.5,1,0.023,0.007,1.017
57:38.7,0,0.023,0.007,1.017
57:38.9,0,0.023,0.006,1.016
57:39.1,0,0.023,0.007,1.017
57:39.3,0,0.023,0.007,1.017
57:39.5,0,0.023,0.007,1.016
57:39.7,0,0.023,0.007,1.017
57:40.0,0,0.023,0.007,1.017
57:40.2,0,0.023,0.007,1.017
57:40.4,0,0.023,0.007,1.017
57:40.6,0,0.023,0.006,1.017
57:40.8,0,0.022,0.006,1.017
57:41.0,0,0.023,0.007,1.017
57:41.2,0,0.022,0.007,1.017
57:41.4,0,0.023,0.007,1.017
57:41.6,0,0.023,0.006,1.016
57:41.8,0,0.022,0.006,1.016
57:42.0,0,0.023,0.006,1.016
57:42.2,0,0.023,0.006,1.016
57:42.4,0,0.023,0.007,1.016
57:42.6,0,0.023,0.007,1.016
57:42.8,0,0.023,0.006,1.016
57:43.0,0,0.022,0.006,1.016
57:43.2,0,0.022,0.007,1.016
57:43.4,0,0.022,0.007,1.016
57:43.6,0,0.022,0.007,1.016
57:43.8,0,0.023,0.007,1.017
57:44.0,0,0.023,0.007,1.016
57:44.2,0,0.023,0.007,1.016
57:44.4,0,0.023,0.007,1.016
57:44.6,0,0.023,0.007,1.017
57:44.8,0,0.023,0.007,1.017
57:45.0,0,0.023,0.006,1.017
57:45.2,0,0.023,0.006,1.017
57:45.4,0,0.023,0.006,1.017
57:45.6,0,0.023,0.006,1.017
57:45.8,0,0.023,0.006,1.017
57:46.0,0,0.023,0.006,1.017
57:46.2,0,0.023,0.007,1.018
57:46.4,0,0.023,0.006,1.018
57:46.6,0,0.023,0.006,1.017
57:46.8,0,0.023,0.006,1.018
57:47.1,0,0.023,0.006,1.017
57:47.3,0,0.023,0.006,1.017
57:47.5,0,0.023,0.006,1.017
57:47.7,0,0.023,0.006,1.017
57:47.9,0,0.022,0.006,1.017
57:48.1,0,0.022,0.007,1.017
57:48.3,0,0.022,0.007,1.017
57:48.5,0,0.022,0.007,1.017
57:48.7,0,0.023,0.007,1.017
57:48.9,0,0.023,0.007,1.017
57:49.1,0,0.023,0.007,1.017
57:49.3,0,0.023,0.007,1.017
57:49.5,0,0.023,0.006,1.017
57:49.7,0,0.023,0.007,1.018
57:49.9,0,0.023,0.007,1.017
57:50.1,0,0.023,0.006,1.017
57:50.3,0,0.023,0.007,1.017
57:50.5,0,0.023,0.007,1.017
57:50.7,0,0.023,0.006,1.017
57:50.9,0,0.023,0.006,1.017
57:51.1,0,0.023,0.006,1.017
57:51.3,0,0.023,0.006,1.017
57:51.5,1,0.022,0.006,1.018
57:51.7,1,0.023,0.006,1.017
57:51.9,1,0.022,0.006,1.017
57:52.1,1,0.022,0.007,1.017
57:52.3,1,0.023,0.006,1.016
57:52.5,1,0.023,0.006,1.016
57:52.7,0,0.023,0.007,1.017
57:52.9,0,0.023,0.007,1.017
57:53.1,0,0.023,0.007,1.017
57:53.3,0,0.023,0.007,1.017
57:53.5,0,0.023,0.007,1.018
57:53.8,0,0.023,0.007,1.017
57:54.0,0,0.023,0.007,1.016
57:54.2,0,0.023,0.006,1.017
57:54.4,0,0.022,0.004,1.016
57:54.6,0,0.022,0.004,1.016
57:54.8,0,0.022,0.004,1.015
57:55.0,0,0.022,0.004,1.015
57:55.2,0,0.022,0.005,1.015
57:55.4,0,0.023,0.007,1.016
57:55.6,0,0.023,0.008,1.016
57:55.8,0,0.023,0.007,1.016
57:56.0,1,0.023,0.007,1.017
57:56.2,1,0.022,0.007,1.017
57:56.4,1,0.023,0.007,1.017
57:56.6,1,0.022,0.007,1.017
57:56.8,1,0.023,0.007,1.017
57:57.0,1,0.023,0.007,1.017
57:57.2,0,0.023,0.007,1.018
57:57.4,0,0.022,0.007,1.017
57:57.6,0,0.023,0.006,1.017
57:57.8,0,0.023,0.007,1.018
57:58.0,0,0.023,0.007,1.017
57:58.2,0,0.023,0.007,1.017
57:58.4,0,0.023,0.006,1.017
57:58.6,0,0.023,0.007,1.016
57:58.8,0,0.023,0.007,1.016
57:59.0,0,0.023,0.007,1.016
57:59.2,0,0.023,0.006,1.016
57:59.4,0,0.023,0.007,1.016
57:59.6,0,0.022,0.007,1.016
57:59.8,0,0.023,0.007,1.016
58:00.0,0,0.023,0.006,1.015
58:00.2,0,0.023,0.006,1.016
58:00.4,0,0.023,0.006,1.017
58:00.6,0,0.023,0.006,1.017
58:00.9,1,0.023,0.006,1.017
58:01.1,1,0.023,0.007,1.018
58:01.3,1,0.023,0.007,1.017
58:01.5,1,0.022,0.007,1.016
58:01.7,1,0.022,0.007,1.016
58:01.9,1,0.022,0.006,1.016
58:02.1,0,0.022,0.006,1.016
58:02.3,0,0.022,0.006,1.016
58:02.5,0,0.022,0.007,1.016
58:02.7,0,0.022,0.007,1.016
58:02.9,0,0.023,0.007,1.016
58:03.1,0,0.022,0.007,1.017
58:03.3,0,0.023,0.007,1.017
58:03.5,0,0.023,0.007,1.017
58:03.7,0,0.023,0.006,1.017
58:03.9,0,0.023,0.006,1.017
58:04.1,0,0.023,0.006,1.017
58:04.3,0,0.023,0.006,1.016
58:04.5,0,0.023,0.006,1.016
58:04.7,0,0.022,0.006,1.016
58:04.9,0,0.022,0.006,1.016
58:05.1,0,0.022,0.005,1.017
58:05.3,0,0.022,0.006,1.017
58:05.5,0,0.022,0.007,1.018
58:05.7,0,0.022,0.007,1.018
58:05.9,0,0.022,0.007,1.018
58:06.1,0,0.023,0.007,1.018
58:06.3,1,0.023,0.006,1.017
58:06.5,1,0.023,0.006,1.017
58:06.7,1,0.023,0.006,1.017
58:06.9,1,0.023,0.006,1.017
58:07.1,1,0.023,0.006,1.017
58:07.3,1,0.023,0.006,1.016
58:07.5,0,0.023,0.006,1.016
58:07.7,0,0.023,0.006,1.016
58:08.0,0,0.023,0.006,1.016
58:08.2,0,0.023,0.006,1.016
58:08.4,0,0.023,0.006,1.016
58:08.6,0,0.023,0.006,1.016
58:08.8,0,0.022,0.006,1.016
58:09.0,0,0.022,0.006,1.016
58:09.2,0,0.022,0.006,1.017
58:09.4,0,0.022,0.007,1.018
58:09.6,0,0.022,0.007,1.019
58:09.8,0,0.022,0.007,1.019
58:10.0,0,0.022,0.007,1.019
58:10.2,0,0.022,0.007,1.019
58:10.4,0,0.023,0.006,1.017
58:10.6,0,0.023,0.006,1.016
58:10.8,0,0.022,0.006,1.017
58:11.0,0,0.023,0.007,1.016
58:11.2,0,0.023,0.007,1.015
58:11.4,0,0.022,0.007,1.016
58:11.6,0,0.023,0.007,1.016
58:11.8,0,0.022,0.007,1.016
58:12.0,0,0.022,0.006,1.016
58:12.2,0,0.022,0.006,1.016
58:12.4,0,0.022,0.006,1.017
58:12.6,0,0.022,0.007,1.017
58:12.8,0,0.022,0.006,1.017
58:13.0,0,0.023,0.007,1.017
58:13.2,0,0.023,0.007,1.017
58:13.4,0,0.023,0.006,1.016
58:13.6,0,0.023,0.006,1.016
58:13.8,0,0.023,0.007,1.016
58:14.0,0,0.023,0.006,1.016
58:14.2,1,0.022,0.006,1.016
58:14.4,1,0.023,0.006,1.016
58:14.6,1,0.023,0.006,1.016
58:14.8,1,0.023,0.006,1.016
58:15.0,1,0.023,0.006,1.016
58:15.2,1,0.023,0.006,1.016
58:15.4,0,0.023,0.006,1.016
58:15.7,0,0.023,0.006,1.016
58:15.9,0,0.023,0.006,1.016
58:16.1,0,0.023,0.006,1.015
58:16.3,0,0.023,0.007,1.016
58:16.5,0,0.023,0.006,1.016
58:16.7,0,0.023,0.007,1.016
58:16.9,0,0.023,0.006,1.016
58:17.1,0,0.022,0.006,1.016
58:17.3,0,0.022,0.006,1.016
58:17.5,0,0.023,0.007,1.016
58:17.7,0,0.022,0.006,1.016
58:17.9,0,0.022,0.006,1.016
58:18.1,0,0.022,0.006,1.015
58:18.3,0,0.022,0.006,1.015
58:18.5,0,0.022,0.006,1.015
58:18.7,0,0.023,0.006,1.016
58:18.9,0,0.023,0.006,1.017
58:19.1,0,0.023,0.007,1.017
58:19.3,1,0.023,0.006,1.017
58:19.5,1,0.022,0.006,1.017
58:19.7,1,0.022,0.006,1.016
58:19.9,1,0.023,0.006,1.015
58:20.1,1,0.022,0.006,1.016
58:20.3,1,0.023,0.007,1.017
58:20.5,0,0.023,0.006,1.016
58:20.7,0,0.023,0.006,1.017
58:20.9,0,0.023,0.007,1.017
58:21.1,0,0.023,0.007,1.016
58:21.3,0,0.023,0.006,1.016
58:21.5,0,0.023,0.007,1.017
58:21.7,0,0.023,0.007,1.016
58:21.9,0,0.023,0.007,1.016
58:22.1,0,0.023,0.006,1.016
58:22.3,0,0.023,0.007,1.017
58:22.5,0,0.023,0.007,1.017
58:22.7,0,0.023,0.007,1.017
58:23.0,0,0.023,0.007,1.017
58:23.2,0,0.023,0.007,1.016
58:23.4,0,0.023,0.007,1.016
58:23.6,0,0.023,0.007,1.016
58:23.8,0,0.023,0.007,1.016
58:24.0,1,0.023,0.007,1.016
58:24.2,1,0.023,0.007,1.016
58:24.4,1,0.023,0.007,1.016
58:24.6,1,0.023,0.007,1.017
58:24.8,1,0.023,0.007,1.017
58:25.0,1,0.023,0.007,1.017
58:25.2,0,0.023,0.006,1.017
58:25.4,0,0.023,0.006,1.017
58:25.6,0,0.023,0.006,1.017
58:25.8,0,0.023,0.006,1.017
58:26.0,0,0.022,0.007,1.017
58:26.2,0,0.022,0.007,1.017
58:26.4,0,0.022,0.007,1.017
58:26.6,0,0.022,0.007,1.017
58:26.8,0,0.022,0.007,1.017
58:27.0,0,0.023,0.007,1.017
58:27.2,0,0.023,0.007,1.017
58:27.4,0,0.023,0.007,1.017
58:27.6,0,0.023,0.008,1.017
58:27.8,0,0.023,0.008,1.017
58:28.0,0,0.023,0.007,1.017
58:28.2,0,0.023,0.007,1.018
58:28.4,0,0.023,0.007,1.017
58:28.6,0,0.023,0.007,1.017
58:28.8,1,0.022,0.007,1.017
58:29.0,1,0.022,0.007,1.017
58:29.2,1,0.022,0.007,1.017
58:29.4,1,0.022,0.007,1.017
58:29.6,1,0.022,0.007,1.017
58:29.8,1,0.023,0.007,1.017
58:30.1,0,0.022,0.007,1.017
58:30.3,0,0.023,0.006,1.017
58:30.5,0,0.023,0.006,1.017
58:30.7,0,0.023,0.006,1.017
58:30.9,0,0.023,0.006,1.017
58:31.1,0,0.023,0.007,1.017
58:31.3,0,0.023,0.007,1.017
58:31.5,0,0.023,0.007,1.017
58:31.7,0,0.023,0.007,1.016
58:31.9,0,0.023,0.007,1.016
58:32.1,0,0.023,0.007,1.016
58:32.3,0,0.023,0.007,1.016
58:32.5,0,0.023,0.006,1.016
58:32.7,0,0.022,0.006,1.016
58:32.9,0,0.022,0.007,1.016
58:33.1,0,0.022,0.007,1.017
58:33.3,0,0.022,0.007,1.017
58:33.5,1,0.022,0.007,1.017
58:33.7,1,0.023,0.007,1.017
58:33.9,1,0.023,0.007,1.017
58:34.1,1,0.023,0.007,1.016
58:34.3,1,0.023,0.007,1.016
58:34.5,0,0.023,0.007,1.017
58:34.7,0,0.023,0.007,1.017
58:34.9,0,0.023,0.007,1.017
58:35.1,0,0.023,0.007,1.017
58:35.3,0,0.023,0.007,1.018
58:35.5,0,0.023,0.006,1.017
58:35.7,0,0.022,0.006,1.016
58:35.9,0,0.022,0.006,1.017
58:36.1,0,0.022,0.006,1.017
58:36.3,0,0.023,0.006,1.016
58:36.5,0,0.023,0.006,1.017
58:36.7,0,0.023,0.007,1.018
58:36.9,0,0.023,0.007,1.016
58:37.1,0,0.023,0.007,1.016
58:37.3,0,0.023,0.007,1.017
58:37.5,0,0.023,0.007,1.016
58:37.7,0,0.023,0.007,1.016
58:38.0,0,0.023,0.007,1.017
58:38.2,0,0.023,0.007,1.017
58:38.4,0,0.023,0.007,1.016
58:38.6,0,0.023,0.007,1.017
58:38.8,0,0.023,0.007,1.017
58:39.0,0,0.023,0.007,1.017
58:39.2,0,0.023,0.006,1.017
58:39.4,0,0.023,0.007,1.017
58:39.6,0,0.022,0.007,1.017
58:39.8,0,0.023,0.007,1.017
58:40.0,0,0.023,0.007,1.017
58:40.2,0,0.023,0.007,1.017
58:40.4,0,0.023,0.007,1.017
58:40.6,0,0.023,0.006,1.017
58:40.8,0,0.022,0.006,1.017
58:41.0,0,0.023,0.007,1.016
58:41.2,0,0.023,0.007,1.016
58:41.4,0,0.022,0.007,1.016
58:41.6,0,0.023,0.007,1.016
58:41.8,0,0.023,0.007,1.016
58:42.0,0,0.023,0.006,1.016
58:42.2,0,0.023,0.006,1.016
58:42.4,0,0.023,0.006,1.016
58:42.6,0,0.023,0.006,1.017
58:42.8,0,0.023,0.007,1.017
58:43.0,0,0.023,0.007,1.015
58:43.2,0,0.023,0.007,1.016
58:43.4,0,0.023,0.007,1.016
58:43.6,0,0.023,0.006,1.015
58:43.8,0,0.023,0.007,1.015
58:44.0,0,0.022,0.006,1.018
58:44.2,0,0.023,0.006,1.016
58:44.4,0,0.023,0.007,1.016
58:44.6,0,0.022,0.007,1.018
58:44.8,0,0.022,0.007,1.017
58:45.0,0,0.023,0.008,1.017
58:45.2,0,0.023,0.007,1.017
58:45.5,0,0.023,0.007,1.017
58:45.7,0,0.023,0.007,1.016
58:45.9,0,0.023,0.007,1.017
58:46.1,0,0.023,0.006,1.017
58:46.3,0,0.023,0.007,1.017
58:46.5,0,0.023,0.006,1.016
58:46.7,0,0.023,0.007,1.017
58:46.9,0,0.023,0.007,1.017
58:47.1,0,0.023,0.007,1.016
58:47.3,0,0.023,0.007,1.016
58:47.5,0,0.023,0.007,1.017
58:47.7,0,0.023,0.007,1.017
58:47.9,0,0.023,0.007,1.017
58:48.1,0,0.022,0.007,1.017
58:48.3,0,0.023,0.007,1.017
58:48.5,0,0.022,0.007,1.016
58:48.7,0,0.022,0.007,1.016
58:48.9,0,0.022,0.007,1.016
58:49.1,0,0.023,0.007,1.016
58:49.3,0,0.022,0.006,1.016
58:49.5,0,0.022,0.006,1.016
58:49.7,0,0.023,0.006,1.016
58:49.9,0,0.022,0.006,1.016
58:50.1,0,0.022,0.006,1.016
58:50.3,0,0.022,0.006,1.016
58:50.5,0,0.023,0.006,1.016
58:50.7,0,0.022,0.006,1.016
58:50.9,0,0.023,0.006,1.016
58:51.1,0,0.023,0.006,1.016
58:51.3,0,0.023,0.007,1.016
58:51.5,0,0.023,0.006,1.017
58:51.7,0,0.023,0.006,1.016
58:51.9,0,0.023,0.006,1.017
58:52.1,0,0.023,0.007,1.017
58:52.3,0,0.023,0.007,1.017
58:52.5,0,0.023,0.007,1.017
58:52.8,0,0.023,0.006,1.017
58:53.0,0,0.022,0.007,1.017
58:53.2,0,0.022,0.007,1.017
58:53.4,0,0.022,0.007,1.017
58:53.6,0,0.022,0.007,1.017
58:53.8,0,0.022,0.007,1.017
58:54.0,0,0.022,0.007,1.017
58:54.2,0,0.022,0.007,1.017
58:54.4,0,0.022,0.007,1.017
58:54.6,0,0.023,0.007,1.016
58:54.8,0,0.023,0.007,1.016
58:55.0,0,0.023,0.006,1.016
58:55.2,0,0.023,0.007,1.016
58:55.4,0,0.023,0.007,1.016
58:55.6,0,0.022,0.007,1.017
58:55.8,0,0.022,0.006,1.017
58:56.0,0,0.022,0.007,1.017
58:56.2,0,0.022,0.006,1.017
58:56.4,0,0.022,0.006,1.017
58:56.6,0,0.023,0.006,1.017
58:56.8,0,0.023,0.006,1.017
58:57.0,0,0.023,0.006,1.017
58:57.2,0,0.023,0.006,1.017
58:57.4,0,0.023,0.006,1.017
58:57.6,0,0.023,0.006,1.017
58:57.8,0,0.023,0.006,1.016
58:58.0,0,0.023,0.006,1.017
58:58.2,0,0.023,0.006,1.017
58:58.4,0,0.022,0.006,1.017
58:58.6,0,0.022,0.007,1.017
58:58.8,0,0.023,0.006,1.017
58:59.1,0,0.023,0.007,1.017
58:59.3,0,0.023,0.006,1.017
58:59.5,0,0.023,0.007,1.017
58:59.7,0,0.023,0.007,1.017
58:59.9,0,0.022,0.007,1.017
59:00.1,0,0.022,0.007,1.016
59:00.3,0,0.022,0.007,1.016
59:00.5,0,0.022,0.006,1.016
59:00.7,0,0.022,0.006,1.016
59:00.9,0,0.022,0.006,1.016
59:01.1,0,0.023,0.006,1.017
59:01.3,0,0.022,0.006,1.016
59:01.5,0,0.023,0.006,1.016
59:01.7,0,0.023,0.006,1.016
59:01.9,0,0.023,0.006,1.016
59:02.1,0,0.023,0.005,1.016
59:02.3,0,0.022,0.005,1.016
59:02.5,0,0.022,0.006,1.016
59:02.7,0,0.022,0.006,1.016
59:02.9,0,0.022,0.006,1.016
59:03.1,0,0.022,0.006,1.016
59:03.3,0,0.023,0.007,1.017
59:03.5,0,0.023,0.007,1.016
59:03.7,0,0.023,0.007,1.017
59:03.9,0,0.023,0.007,1.017
59:04.1,0,0.023,0.006,1.016
59:04.3,0,0.023,0.007,1.017
59:04.5,0,0.023,0.007,1.017
59:04.7,0,0.023,0.006,1.016
59:04.9,0,0.023,0.007,1.016
59:05.1,0,0.022,0.007,1.012
59:05.3,0,0.02,0.002,1.006
59:05.5,0,0.021,0.003,1.005
59:05.7,0,0.021,0.003,1.006
59:06.0,0,0.02,0.002,1.006
59:06.2,0,0.022,0.004,1.011
59:06.4,0,0.022,0.007,1.016
59:06.6,0,0.022,0.006,1.017
59:06.8,0,0.023,0.006,1.017
59:07.0,0,0.023,0.007,1.017
59:07.2,0,0.023,0.006,1.017
59:07.4,0,0.023,0.006,1.017
59:07.6,1,0.023,0.006,1.017
59:07.8,1,0.023,0.007,1.017
59:08.0,1,0.022,0.006,1.017
59:08.2,1,0.023,0.007,1.017
59:08.4,1,0.022,0.007,1.017
59:08.6,1,0.022,0.007,1.017
59:08.8,0,0.022,0.007,1.017
59:09.0,0,0.023,0.007,1.017
59:09.2,0,0.022,0.007,1.017
59:09.4,0,0.023,0.007,1.017
59:09.6,0,0.023,0.007,1.017
59:09.8,0,0.023,0.006,1.017
59:10.0,0,0.023,0.006,1.016
59:10.2,0,0.023,0.006,1.016
59:10.4,0,0.022,0.007,1.017
59:10.6,0,0.022,0.006,1.017
59:10.8,0,0.023,0.007,1.017
59:11.0,0,0.023,0.007,1.018
59:11.2,0,0.023,0.007,1.018
59:11.4,0,0.023,0.007,1.017
59:11.6,0,0.023,0.007,1.017
59:11.8,0,0.023,0.007,1.016
59:12.0,0,0.022,0.007,1.016
59:12.2,1,0.022,0.007,1.017
59:12.4,1,0.022,0.006,1.015
59:12.6,1,0.023,0.007,1.017
59:12.8,1,0.022,0.007,1.017
59:13.1,1,0.023,0.007,1.017
59:13.3,1,0.023,0.007,1.017
59:13.5,0,0.023,0.007,1.018
59:13.7,0,0.022,0.007,1.018
59:13.9,0,0.023,0.007,1.017
59:14.1,0,0.023,0.007,1.017
59:14.3,0,0.023,0.006,1.017
59:14.5,0,0.023,0.006,1.016
59:14.7,0,0.023,0.006,1.015
59:14.9,0,0.023,0.006,1.017
59:15.1,0,0.022,0.006,1.018
59:15.3,0,0.023,0.006,1.017
59:15.5,0,0.023,0.007,1.017
59:15.7,0,0.022,0.006,1.018
59:15.9,0,0.022,0.007,1.017
59:16.1,0,0.022,0.007,1.015
59:16.3,0,0.022,0.007,1.015
59:16.5,0,0.022,0.007,1.017
59:16.7,0,0.023,0.007,1.016
59:16.9,0,0.023,0.006,1.015
59:17.1,0,0.023,0.006,1.016
59:17.3,0,0.022,0.006,1.017
59:17.5,0,0.022,0.006,1.016
59:17.7,0,0.022,0.006,1.016
59:17.9,0,0.022,0.006,1.016
59:18.1,0,0.022,0.006,1.017
59:18.3,0,0.023,0.007,1.016
59:18.5,0,0.023,0.007,1.017
59:18.7,0,0.023,0.007,1.017
59:18.9,0,0.023,0.007,1.017
59:19.1,0,0.023,0.007,1.017
59:19.3,0,0.023,0.006,1.017
59:19.5,0,0.023,0.007,1.017
59:19.7,0,0.023,0.007,1.017
59:19.9,0,0.023,0.007,1.017
59:20.1,0,0.023,0.007,1.017
59:20.3,0,0.023,0.007,1.017
59:20.6,0,0.023,0.006,1.017
59:20.8,0,0.022,0.007,1.017
59:21.0,0,0.022,0.007,1.017
59:21.2,0,0.023,0.007,1.017
59:21.4,0,0.023,0.007,1.17
59:21.6,0,0.023,0.007,1.017
59:21.8,0,0.023,0.007,1.016
59:22.0,0,0.023,0.006,1.016
59:22.2,0,0.023,0.007,1.016
59:22.4,0,0.023,0.007,1.016
59:22.6,0,0.022,0.006,1.016
59:22.8,0,0.022,0.006,1.016
59:23.0,0,0.023,0.007,1.016
59:23.2,0,0.022,0.007,1.016
59:23.4,0,0.022,0.006,1.016
59:23.6,0,0.022,0.007,1.016
59:23.8,0,0.022,0.007,1.017
59:24.0,0,0.022,0.007,1.016
59:24.2,0,0.023,0.007,1.016
59:24.4,0,0.023,0.007,1.016
59:24.6,0,0.023,0.007,1.016
59:24.9,0,0.023,0.007,1.017
59:25.1,0,0.023,0.007,1.017
59:25.3,0,0.023,0.007,1.017
59:25.5,0,0.023,0.007,1.017
59:25.7,0,0.022,0.006,1.017
59:25.9,0,0.022,0.007,1.017
59:26.1,0,0.022,0.007,1.017
59:26.3,0,0.022,0.007,1.017
59:26.5,0,0.023,0.007,1.016
59:26.7,0,0.023,0.007,1.016
59:26.9,0,0.022,0.006,1.016
59:27.1,0,0.023,0.006,1.016
59:27.3,1,0.023,0.006,1.017
59:27.5,1,0.023,0.007,1.017
59:27.7,1,0.023,0.007,1.017
59:27.9,1,0.023,0.007,1.017
59:28.1,1,0.023,0.007,1.017
59:28.3,1,0.023,0.007,1.017
59:28.5,0,0.023,0.007,1.017
59:28.7,0,0.023,0.007,1.017
59:28.9,0,0.023,0.007,1.016
59:29.1,0,0.022,0.007,1.017
59:29.3,0,0.022,0.007,1.017
59:29.5,0,0.022,0.007,1.016
59:29.7,0,0.022,0.007,1.017
59:29.9,0,0.022,0.007,1.017
59:30.1,0,0.022,0.007,1.017
59:30.3,0,0.022,0.007,1.017
59:30.5,0,0.022,0.007,1.017
59:30.7,0,0.023,0.007,1.017
59:30.9,0,0.023,0.007,1.017
59:31.1,0,0.023,0.007,1.017
59:31.3,0,0.023,0.007,1.016
59:31.5,0,0.023,0.006,1.016
59:31.7,0,0.023,0.006,1.016
59:32.0,0,0.023,0.007,1.016
59:32.2,1,0.023,0.006,1.016
59:32.4,1,0.023,0.007,1.017
59:32.6,1,0.023,0.007,1.017
59:32.8,1,0.023,0.007,1.017
59:33.0,1,0.023,0.006,1.017
59:33.2,1,0.023,0.007,1.017
59:33.4,0,0.023,0.007,1.017
59:33.6,0,0.022,0.007,1.018
59:33.8,0,0.022,0.007,1.017
59:34.0,0,0.022,0.007,1.017
59:34.2,0,0.022,0.007,1.018
59:34.4,0,0.022,0.007,1.016
59:34.6,0,0.023,0.007,1.016
59:34.8,0,0.023,0.006,1.017
59:35.0,0,0.023,0.007,1.018
59:35.2,0,0.023,0.006,1.017
59:35.4,0,0.023,0.006,1.017
59:35.6,0,0.023,0.006,1.018
59:35.8,0,0.023,0.006,1.017
59:36.0,0,0.023,0.006,1.017
59:36.2,0,0.023,0.006,1.017
59:36.4,0,0.023,0.007,1.017
59:36.6,0,0.023,0.006,1.016
59:36.8,0,0.023,0.007,1.017
59:37.0,0,0.023,0.006,1.017
59:37.2,0,0.023,0.006,1.016
59:37.4,0,0.023,0.006,1.016
59:37.6,0,0.023,0.006,1.017
59:37.8,0,0.022,0.006,1.017
59:38.0,0,0.022,0.006,1.017
59:38.2,0,0.022,0.006,1.017
59:38.5,0,0.022,0.006,1.017
59:38.7,0,0.022,0.006,1.017
59:38.9,0,0.023,0.007,1.017
59:39.1,0,0.023,0.007,1.017
59:39.3,0,0.023,0.007,1.017
59:39.5,0,0.023,0.007,1.017
59:39.7,0,0.023,0.007,1.017
59:39.9,0,0.023,0.006,1.017
59:40.1,0,0.022,0.006,1.017
59:40.3,0,0.023,0.006,1.017
59:40.5,0,0.023,0.007,1.017
59:40.7,0,0.023,0.007,1.017
59:41.1,0,0.023,0.007,1.017
59:41.3,0,0.023,0.007,1.017
59:41.5,0,0.023,0.007,1.016
59:41.7,0,0.023,0.007,1.017
59:41.9,0,0.023,0.007,1.016
59:42.1,0,0.023,0.007,1.017
59:42.3,0,0.023,0.008,1.018
59:42.6,0,0.023,0.007,1.017
59:42.8,0,0.023,0.007,1.016
59:43.0,0,0.023,0.007,1.017
59:43.2,0,0.023,0.007,1.017
59:43.4,0,0.023,0.006,1.016
59:43.6,0,0.023,0.006,1.017
59:43.8,0,0.022,0.007,1.017
59:44.0,0,0.023,0.006,1.016
59:44.2,0,0.022,0.007,1.017
59:44.4,0,0.022,0.007,1.017
59:44.6,0,0.022,0.007,1.017
59:44.8,0,0.023,0.007,1.017
59:45.0,0,0.022,0.006,1.017
59:45.2,0,0.023,0.006,1.016
59:45.4,0,0.023,0.006,1.016
59:45.6,0,0.023,0.006,1.016
59:45.8,0,0.023,0.006,1.016
59:46.0,0,0.023,0.006,1.016
59:46.2,0,0.023,0.006,1.016
59:46.4,0,0.023,0.006,1.016
59:46.6,0,0.023,0.006,1.016
59:46.8,0,0.023,0.006,1.016
59:47.0,0,0.023,0.007,1.016
59:47.2,0,0.023,0.006,1.016
59:47.4,0,0.023,0.006,1.016
59:47.6,0,0.023,0.006,1.016
59:47.8,0,0.023,0.005,1.016
59:48.0,0,0.023,0.006,1.017
59:48.2,0,0.023,0.006,1.017
59:48.4,0,0.023,0.006,1.017
59:48.6,0,0.023,0.006,1.016
59:48.8,1,0.023,0.007,1.017
59:49.0,1,0.023,0.007,1.017
59:49.2,1,0.023,0.007,1.016
59:49.5,1,0.023,0.007,1.017
59:49.7,1,0.023,0.007,1.017
59:49.9,0,0.023,0.006,1.017
59:50.1,0,0.023,0.007,1.017
59:50.3,0,0.023,0.007,1.018
59:50.5,0,0.023,0.007,1.018
59:50.7,0,0.023,0.007,1.017
59:50.9,0,0.023,0.007,1.017
59:51.1,0,0.022,0.007,1.017
59:51.3,0,0.023,0.007,1.016
59:51.5,0,0.023,0.006,1.015
59:51.7,0,0.023,0.006,1.016
59:51.9,0,0.023,0.006,1.016
59:52.1,0,0.023,0.006,1.016
59:52.3,0,0.023,0.007,1.017
59:52.5,0,0.023,0.006,1.017
59:52.7,0,0.023,0.006,1.017
59:52.9,0,0.023,0.006,1.017
59:53.1,0,0.022,0.006,1.016
59:53.3,1,0.023,0.006,1.017
59:53.5,1,0.023,0.007,1.017
59:53.7,1,0.023,0.006,1.016
59:53.9,1,0.022,0.007,1.016
59:54.1,1,0.023,0.007,1.017
59:54.3,1,0.022,0.006,1.016
59:54.5,0,0.022,0.006,1.017
59:54.7,0,0.022,0.007,1.017
59:54.9,0,0.022,0.007,1.017
59:55.1,0,0.023,0.007,1.017
59:55.3,0,0.023,0.008,1.017
59:55.5,0,0.023,0.007,1.017
59:55.7,0,0.023,0.007,1.017
59:55.9,0,0.023,0.007,1.017
59:56.1,0,0.023,0.007,1.017
59:56.3,0,0.023,0.006,1.017
59:56.5,0,0.023,0.006,1.017
59:56.7,0,0.023,0.006,1.017
59:57.0,0,0.023,0.006,1.017
59:57.2,0,0.023,0.006,1.017
59:57.4,0,0.023,0.007,1.017
59:57.6,0,0.023,0.007,1.017
59:57.8,0,0.023,0.007,1.017
59:58.0,0,0.023,0.007,1.017
59:58.2,0,0.023,0.007,1.016
59:58.4,0,0.022,0.007,1.016
59:58.6,0,0.023,0.007,1.016
59:58.8,0,0.023,0.006,1.016
59:59.0,0,0.023,0.007,1.016
59:59.2,1,0.023,0.006,1.016
59:59.4,1,0.023,0.006,1.017
59:59.6,1,0.023,0.006,1.017
59:59.8,1,0.022,0.006,1.018
00:00.0,1,0.023,0.006,1.019
00:00.2,0,0.023,0.006,1.018
00:00.4,0,0.023,0.007,1.019
00:00.6,0,0.022,0.007,1.019
00:00.8,0,0.023,0.007,1.018
00:01.0,0,0.022,0.006,1.017
00:01.2,0,0.022,0.006,1.018
00:01.4,0,0.022,0.006,1.017
00:01.6,0,0.023,0.006,1.016
00:01.8,0,0.022,0.006,1.016
00:02.0,0,0.022,0.006,1.016
00:02.2,0,0.023,0.006,1.016
00:02.4,0,0.023,0.006,1.017
00:02.6,0,0.023,0.006,1.017
00:02.8,0,0.023,0.006,1.017
00:03.0,0,0.023,0.006,1.017
00:03.2,0,0.023,0.006,1.017
00:03.4,0,0.022,0.006,1.016
00:03.6,1,0.022,0.005,1.014
00:03.8,1,0.022,0.005,1.015
00:04.0,1,0.022,0.006,1.016
00:04.2,1,0.022,0.005,1.015
00:04.4,1,0.022,0.006,1.015
00:04.7,0,0.022,0.008,1.018
00:04.9,0,0.023,0.007,1.017
00:05.1,0,0.023,0.006,1.016
00:05.3,0,0.023,0.007,1.017
00:05.5,0,0.023,0.006,1.017
00:05.7,0,0.023,0.006,1.016
00:05.9,0,0.023,0.007,1.017
00:06.1,0,0.023,0.007,1.017
00:06.3,0,0.023,0.007,1.016
00:06.5,0,0.023,0.007,1.016
00:06.7,0,0.023,0.007,1.017
00:06.9,0,0.023,0.007,1.017
00:07.1,0,0.023,0.007,1.016
00:07.3,0,0.022,0.007,1.017
00:07.5,0,0.022,0.007,1.017
00:07.7,0,0.022,0.007,1.016
00:07.9,0,0.022,0.006,1.016
00:08.1,0,0.022,0.007,1.016
00:08.3,1,0.022,0.007,1.016
00:08.5,1,0.022,0.007,1.016
00:08.7,1,0.023,0.007,1.016
00:08.9,1,0.022,0.007,1.016
00:09.1,1,0.022,0.007,1.017
00:09.3,1,0.022,0.007,1.017
00:09.5,0,0.022,0.007,1.017
00:09.7,0,0.022,0.007,1.017
00:09.9,0,0.022,0.007,1.017
00:10.1,0,0.023,0.007,1.017
00:10.3,0,0.023,0.007,1.017
00:10.6,0,0.023,0.007,1.017
00:10.7,0,0.023,0.007,1.017
00:10.9,0,0.023,0.007,1.017
00:11.1,0,0.023,0.007,1.017
00:11.3,0,0.023,0.007,1.017
00:11.5,0,0.023,0.007,1.017
00:11.7,0,0.023,0.007,1.017
00:11.9,0,0.022,0.006,1.017
00:12.1,0,0.023,0.006,1.017
00:12.4,0,0.023,0.007,1.018
00:12.6,0,0.023,0.007,1.018
00:12.8,0,0.023,0.006,1.017
00:13.0,0,0.023,0.007,1.018
00:13.2,0,0.023,0.007,1.017
00:13.4,0,0.023,0.007,1.016
00:13.6,0,0.023,0.007,1.016
00:13.8,0,0.022,0.007,1.018
00:14.0,0,0.022,0.006,1.018
00:14.2,0,0.022,0.007,1.018
00:14.4,0,0.022,0.007,1.02
00:14.6,0,0.022,0.007,1.02
00:14.8,0,0.023,0.006,1.016
00:15.0,0,0.023,0.007,1.016
00:15.2,0,0.022,0.007,1.017
00:15.4,1,0.023,0.006,1.016
00:15.6,1,0.023,0.007,1.016
00:15.8,1,0.023,0.006,1.017
00:16.0,1,0.023,0.006,1.017
00:16.2,1,0.023,0.006,1.016
00:16.4,1,0.023,0.006,1.016
00:16.6,0,0.022,0.006,1.017
00:16.8,0,0.023,0.006,1.017
00:17.0,0,0.023,0.006,1.015
00:17.2,0,0.023,0.007,1.016
00:17.4,0,0.023,0.007,1.016
00:17.6,0,0.023,0.006,1.015
00:17.8,0,0.023,0.006,1.016
00:18.0,0,0.023,0.006,1.017
00:18.2,0,0.023,0.007,1.016
00:18.4,0,0.023,0.007,1.016
00:18.6,0,0.022,0.005,1.017
00:18.8,0,0.022,0.007,1.017
00:19.0,0,0.021,0.005,1.016
00:19.2,0,0.019,0.002,1.016
00:19.4,0,0.021,0.003,1.017
00:19.7,0,0.021,0.005,1.016
00:19.9,1,0.02,0.003,1.016
00:20.1,1,0.022,0.005,1.016
00:20.3,1,0.024,0.007,1.016
00:20.5,1,0.023,0.006,1.017
00:20.7,1,0.023,0.007,1.018
00:20.9,1,0.023,0.007,1.017
00:21.1,0,0.023,0.006,1.017
00:21.3,0,0.022,0.007,1.017
00:21.5,0,0.022,0.007,1.017
00:21.7,0,0.023,0.007,1.016
00:21.9,0,0.023,0.006,1.017
00:22.1,0,0.023,0.006,1.017
00:22.3,0,0.023,0.006,1.016
00:22.5,0,0.023,0.006,1.016
00:22.7,0,0.022,0.006,1.017
00:22.9,0,0.022,0.006,1.017
00:23.1,0,0.023,0.006,1.016
00:23.3,0,0.023,0.007,1.017
00:23.5,0,0.022,0.007,1.017
00:23.7,0,0.023,0.007,1.016
00:23.9,0,0.023,0.007,1.016
00:24.1,0,0.023,0.007,1.016
00:24.3,0,0.023,0.007,1.015
00:24.5,1,0.023,0.007,1.016
00:24.7,1,0.023,0.007,1.017
00:24.9,1,0.023,0.007,1.017
00:25.1,1,0.023,0.007,1.017
00:25.3,1,0.023,0.007,1.017
00:25.5,0,0.023,0.007,1.017
00:25.7,0,0.023,0.007,1.017
00:25.9,0,0.023,0.007,1.017
00:26.1,0,0.023,0.007,1.017
00:26.4,0,0.023,0.006,1.017
00:26.6,0,0.023,0.006,1.017
00:26.8,0,0.023,0.007,1.017
00:27.0,0,0.023,0.007,1.017
00:27.2,0,0.023,0.007,1.017
00:27.4,0,0.023,0.007,1.017
00:27.6,0,0.023,0.007,1.016
00:27.8,0,0.023,0.006,1.016
00:28.0,0,0.023,0.006,1.016
00:28.2,0,0.023,0.006,1.016
00:28.4,0,0.023,0.006,1.017
00:28.6,0,0.023,0.007,1.017
00:28.8,0,0.023,0.007,1.017
00:29.0,0,0.023,0.007,1.017
00:29.2,0,0.023,0.007,1.017
00:29.4,0,0.023,0.007,1.017
00:29.6,0,0.023,0.007,1.017
00:29.8,0,0.022,0.006,1.017
00:30.0,0,0.023,0.006,1.017
00:30.2,0,0.023,0.007,1.017
00:30.4,0,0.023,0.007,1.017
00:30.6,0,0.023,0.007,1.017
00:30.8,0,0.023,0.007,1.017
00:31.0,0,0.023,0.007,1.017
00:31.2,1,0.023,0.007,1.016
00:31.4,1,0.023,0.007,1.016
00:31.6,1,0.023,0.007,1.016
00:31.8,1,0.023,0.007,1.016
00:32.0,1,0.023,0.006,1.017
00:32.2,0,0.023,0.006,1.017
00:32.4,0,0.023,0.006,1.017
00:32.6,0,0.023,0.006,1.017
00:32.8,0,0.023,0.006,1.017
00:33.0,0,0.023,0.006,1.016
00:33.3,0,0.023,0.006,1.016
00:33.5,0,0.023,0.007,1.017
00:33.7,0,0.023,0.006,1.017
00:33.9,0,0.023,0.007,1.017
00:34.1,0,0.023,0.007,1.018
00:34.3,0,0.022,0.006,1.018
00:34.5,0,0.023,0.007,1.017
00:34.7,0,0.023,0.007,1.016
00:34.9,0,0.023,0.007,1.016
00:35.1,0,0.023,0.007,1.017
00:35.3,0,0.023,0.007,1.016
00:35.5,0,0.023,0.007,1.017
00:35.7,0,0.023,0.007,1.017
00:35.9,0,0.023,0.006,1.016
00:36.1,0,0.023,0.006,1.016
00:36.3,0,0.023,0.007,1.017
00:36.5,0,0.022,0.006,1.016
00:36.7,0,0.023,0.007,1.016
00:36.9,0,0.023,0.007,1.017
00:37.1,0,0.023,0.007,1.016
00:37.3,0,0.023,0.007,1.017
00:37.5,0,0.023,0.007,1.017
00:37.7,0,0.023,0.006,1.016
00:37.9,0,0.023,0.006,1.017
00:38.1,0,0.023,0.006,1.017
00:38.3,1,0.023,0.006,1.016
00:38.5,1,0.023,0.006,1.016
00:38.7,1,0.023,0.007,1.018
00:38.9,1,0.023,0.007,1.017
00:39.1,1,0.023,0.007,1.017
00:39.3,1,0.023,0.007,1.017
00:39.6,0,0.023,0.007,1.017
00:39.8,0,0.023,0.007,1.017
00:40.0,0,0.023,0.007,1.016
00:40.2,0,0.023,0.007,1.016
00:40.4,0,0.022,0.007,1.017
00:40.6,0,0.023,0.006,1.016
00:40.8,0,0.023,0.006,1.016
00:41.0,0,0.023,0.006,1.017
00:41.2,0,0.023,0.007,1.017
00:41.4,0,0.023,0.007,1.017
00:41.6,0,0.023,0.007,1.017
00:41.8,0,0.023,0.007,1.016
00:42.0,0,0.023,0.007,1.016
00:42.2,0,0.023,0.007,1.017
00:42.4,0,0.023,0.006,1.016
00:42.6,0,0.023,0.007,1.016
00:42.8,0,0.023,0.006,1.016
00:43.0,0,0.023,0.006,1.016
00:43.2,0,0.023,0.007,1.016
00:43.4,0,0.023,0.007,1.017
00:43.6,0,0.023,0.006,1.016
00:43.8,0,0.023,0.007,1.016
00:44.0,0,0.023,0.007,1.016
00:44.2,0,0.023,0.006,1.016
00:44.4,0,0.023,0.006,1.016
00:44.6,0,0.023,0.007,1.017
00:44.8,0,0.022,0.007,1.017
00:45.0,0,0.023,0.007,1.017
00:45.2,0,0.023,0.007,1.017
00:45.4,0,0.023,0.007,1.017
00:45.6,0,0.022,0.006,1.017
00:45.8,0,0.022,0.006,1.017
00:46.1,0,0.022,0.007,1.017
00:46.3,0,0.022,0.006,1.017
00:46.5,0,0.022,0.006,1.017
00:46.7,0,0.023,0.007,1.017
00:46.9,0,0.023,0.007,1.016
00:47.1,0,0.023,0.007,1.016
00:47.3,0,0.023,0.007,1.017
00:47.5,0,0.023,0.007,1.016
00:47.7,0,0.023,0.007,1.016
00:47.9,0,0.023,0.007,1.017
00:48.1,0,0.023,0.007,1.017
00:48.3,0,0.022,0.006,1.017
00:48.5,0,0.023,0.006,1.016
00:48.7,0,0.022,0.006,1.017
00:48.9,0,0.022,0.006,1.016
00:49.1,0,0.023,0.006,1.016
00:49.3,0,0.022,0.006,1.016
00:49.5,0,0.022,0.006,1.016
00:49.7,0,0.023,0.006,1.016
00:49.9,0,0.022,0.006,1.017
00:50.1,0,0.023,0.007,1.017
00:50.3,0,0.023,0.006,1.017
00:50.5,0,0.023,0.007,1.017
00:50.7,0,0.022,0.007,1.017
00:50.9,0,0.023,0.007,1.017
00:51.1,0,0.023,0.007,1.016
00:51.3,0,0.023,0.007,1.016
00:51.5,0,0.023,0.007,1.017
00:51.7,0,0.023,0.007,1.017
00:51.9,0,0.023,0.007,1.017
00:52.1,0,0.023,0.007,1.017
00:52.3,0,0.023,0.007,1.017
00:52.5,0,0.023,0.007,1.017
00:52.7,0,0.023,0.007,1.017
00:52.9,0,0.023,0.006,1.017
00:53.1,0,0.023,0.007,1.017
00:53.3,0,0.023,0.006,1.017
00:53.6,0,0.023,0.007,1.016
00:53.8,0,0.022,0.006,1.016
00:54.0,0,0.022,0.007,1.017
00:54.2,0,0.023,0.007,1.017
00:54.4,0,0.023,0.007,1.017
00:54.6,0,0.022,0.005,1.016
00:54.8,0,0.022,0.007,1.016
00:55.0,0,0.022,0.007,1.016
00:55.2,1,0.022,0.006,1.015
00:55.4,1,0.022,0.006,1.015
00:55.6,1,0.022,0.008,1.016
00:55.8,1,0.022,0.006,1.016
00:56.0,1,0.022,0.006,1.016
00:56.2,1,0.023,0.007,1.017
00:56.4,0,0.022,0.007,1.017
00:56.6,0,0.022,0.007,1.017
00:56.8,0,0.022,0.007,1.016
00:57.0,0,0.023,0.007,1.016
00:57.2,0,0.023,0.007,1.016
00:57.4,0,0.023,0.007,1.016
00:57.6,0,0.023,0.006,1.015
00:57.8,0,0.023,0.006,1.016
00:58.0,0,0.023,0.007,1.016
00:58.2,0,0.022,0.006,1.016
00:58.4,0,0.023,0.007,1.016
00:58.6,0,0.023,0.007,1.017
00:58.8,0,0.023,0.006,1.017
00:59.0,0,0.023,0.006,1.017
00:59.2,0,0.023,0.007,1.018
00:59.4,0,0.023,0.006,1.017
00:59.6,0,0.023,0.006,1.017
00:59.8,0,0.023,0.007,1.018
01:00.0,0,0.023,0.007,1.018
01:00.2,0,0.023,0.006,1.017
01:00.5,0,0.023,0.007,1.018
01:00.7,0,0.023,0.006,1.018
01:00.9,0,0.023,0.006,1.017
01:01.1,0,0.023,0.006,1.017
01:01.3,0,0.022,0.006,1.017
01:01.5,0,0.022,0.007,1.017
01:01.7,0,0.023,0.007,1.017
01:01.9,0,0.022,0.006,1.017
01:02.1,0,0.023,0.006,1.017
01:02.3,0,0.023,0.007,1.017
01:02.5,0,0.022,0.006,1.016
01:02.7,0,0.023,0.006,1.016
01:02.9,0,0.023,0.007,1.016
01:03.1,0,0.023,0.007,1.016
01:03.3,0,0.023,0.007,1.016
01:03.5,0,0.023,0.007,1.017
01:03.7,0,0.023,0.007,1.017
01:03.9,0,0.023,0.007,1.017
01:04.1,0,0.023,0.007,1.017
01:04.3,0,0.023,0.006,1.017
01:04.5,1,0.023,0.006,1.017
01:04.7,1,0.022,0.007,1.017
01:04.9,1,0.022,0.006,1.017
01:05.1,1,0.023,0.006,1.017
01:05.3,1,0.023,0.007,1.017
01:05.5,0,0.022,0.007,1.017
01:05.7,0,0.022,0.006,1.017
01:05.9,0,0.023,0.006,1.017
01:06.1,0,0.023,0.007,1.018
01:06.3,0,0.023,0.006,1.017
01:06.5,0,0.023,0.007,1.017
01:06.7,0,0.023,0.007,1.017
01:06.9,0,0.023,0.007,1.016
01:07.1,0,0.023,0.006,1.016
01:07.4,0,0.023,0.007,1.017
01:07.6,0,0.023,0.006,1.016
01:07.8,0,0.023,0.006,1.017
01:08.0,0,0.023,0.006,1.017
01:08.2,0,0.023,0.007,1.017
01:08.4,0,0.023,0.006,1.017
01:08.6,0,0.023,0.006,1.017
01:08.8,0,0.023,0.007,1.016
01:09.0,0,0.023,0.007,1.016
01:09.2,0,0.023,0.006,1.017
01:09.4,0,0.023,0.007,1.017
01:09.6,0,0.023,0.006,1.017
01:09.8,0,0.023,0.006,1.017
01:10.0,1,0.023,0.007,1.018
01:10.2,1,0.023,0.006,1.017
01:10.4,1,0.022,0.006,1.016
01:10.6,1,0.023,0.006,1.017
01:10.8,1,0.023,0.006,1.017
01:11.0,1,0.023,0.006,1.016
01:11.2,0,0.023,0.006,1.017
01:11.4,0,0.023,0.007,1.017
01:11.6,0,0.022,0.006,1.018
01:11.8,0,0.022,0.006,1.018
01:12.0,0,0.022,0.006,1.018
01:12.2,0,0.022,0.006,1.018
01:12.4,0,0.022,0.006,1.018
01:12.6,0,0.023,0.006,1.017
01:12.8,0,0.023,0.006,1.017
01:13.0,0,0.023,0.006,1.016
01:13.2,0,0.023,0.006,1.016
01:13.4,0,0.023,0.007,1.016
01:13.6,0,0.023,0.006,1.016
01:13.8,0,0.023,0.006,1.016
01:14.0,0,0.023,0.006,1.016
01:14.2,0,0.023,0.007,1.015
01:14.4,0,0.023,0.006,1.014
01:14.6,0,0.023,0.006,1.015
01:14.8,0,0.023,0.007,1.016
01:15.1,0,0.023,0.006,1.015
01:15.3,0,0.023,0.006,1.016
01:15.5,1,0.023,0.007,1.017
01:15.7,1,0.023,0.007,1.016
01:15.9,1,0.022,0.006,1.016
01:16.1,1,0.023,0.007,1.017
01:16.3,1,0.023,0.007,1.016
01:16.5,1,0.023,0.006,1.016
01:16.7,0,0.023,0.007,1.016
01:16.9,0,0.023,0.007,1.017
01:17.1,0,0.023,0.007,1.017
01:17.3,0,0.023,0.006,1.016
01:17.5,0,0.023,0.006,1.016
01:17.7,0,0.023,0.006,1.016
01:17.9,0,0.023,0.006,1.016
01:18.1,0,0.023,0.006,1.016
01:18.3,0,0.023,0.006,1.017
01:18.5,0,0.023,0.007,1.017
01:18.7,0,0.023,0.006,1.016
01:18.9,0,0.023,0.007,1.016
01:19.1,0,0.023,0.007,1.017
01:19.3,0,0.022,0.006,1.016
01:19.5,0,0.023,0.006,1.016
01:19.7,0,0.023,0.007,1.017
01:19.9,1,0.023,0.006,1.017
01:20.1,1,0.022,0.006,1.017
01:20.3,1,0.023,0.006,1.017
01:20.5,1,0.023,0.007,1.017
01:20.7,1,0.023,0.006,1.017
01:20.9,1,0.023,0.007,1.017
01:21.1,0,0.023,0.007,1.016
01:21.3,0,0.022,0.008,1.016
01:21.5,0,0.021,0.007,1.015
01:21.7,0,0.021,0.007,1.015
01:21.9,0,0.021,0.007,1.016
01:22.1,0,0.021,0.007,1.016
01:22.3,0,0.022,0.006,1.016
01:22.6,0,0.022,0.007,1.018
01:22.8,0,0.022,0.007,1.017
01:23.0,0,0.023,0.006,1.016
01:23.2,0,0.023,0.006,1.017
01:23.4,0,0.023,0.007,1.017
01:23.6,0,0.023,0.006,1.016
01:23.8,0,0.023,0.006,1.016
01:24.0,0,0.023,0.006,1.017
01:24.2,0,0.023,0.006,1.016
01:24.4,0,0.022,0.006,1.016
01:24.6,1,0.022,0.006,1.017
01:24.8,1,0.022,0.006,1.017
01:25.0,1,0.022,0.006,1.017
01:25.2,1,0.022,0.006,1.018
01:25.4,1,0.022,0.006,1.018
01:25.6,0,0.022,0.007,1.017
01:25.8,0,0.023,0.007,1.018
01:26.0,0,0.022,0.007,1.018
01:26.2,0,0.023,0.007,1.018
01:26.4,0,0.022,0.006,1.017
01:26.6,0,0.022,0.006,1.017
01:26.8,0,0.022,0.006,1.017
01:27.0,0,0.023,0.006,1.017
01:27.2,0,0.022,0.005,1.018
01:27.4,0,0.022,0.005,1.018
01:27.6,0,0.022,0.006,1.018
01:27.8,0,0.022,0.007,1.018
01:28.0,0,0.022,0.007,1.016
01:28.2,0,0.022,0.006,1.013
01:28.4,0,0.023,0.007,1.014
01:28.6,0,0.023,0.007,1.015
01:28.8,0,0.024,0.006,1.013
01:29.0,1,0.023,0.006,1.015
01:29.2,1,0.023,0.007,1.018
01:29.4,1,0.023,0.006,1.016
01:29.7,1,0.023,0.006,1.016
01:29.9,1,0.023,0.006,1.017
01:30.1,0,0.023,0.006,1.017
01:30.3,0,0.023,0.006,1.017
01:30.5,0,0.023,0.006,1.016
01:30.7,0,0.022,0.006,1.016
01:30.9,0,0.023,0.006,1.016
01:31.1,0,0.022,0.006,1.016
01:31.3,0,0.022,0.006,1.016
01:31.5,0,0.023,0.007,1.016
01:31.7,0,0.022,0.006,1.016
01:31.9,0,0.023,0.007,1.017
01:32.1,0,0.023,0.007,1.017
01:32.3,0,0.022,0.006,1.017
01:32.5,0,0.022,0.007,1.018
01:32.7,0,0.023,0.007,1.017
01:32.9,0,0.023,0.007,1.017
01:33.1,0,0.022,0.007,1.017
01:33.3,0,0.023,0.007,1.016
01:33.5,0,0.022,0.006,1.016
01:33.7,0,0.022,0.007,1.017
01:33.9,0,0.022,0.006,1.016
01:34.1,0,0.022,0.006,1.016
01:34.3,0,0.023,0.007,1.016
01:34.5,0,0.023,0.007,1.016
01:34.7,0,0.022,0.006,1.016
01:34.9,0,0.022,0.006,1.016
01:35.1,0,0.022,0.006,1.016
01:35.3,0,0.022,0.006,1.016
01:35.5,0,0.022,0.007,1.016
01:35.7,0,0.022,0.006,1.015
01:35.9,0,0.023,0.007,1.016
01:36.1,0,0.022,0.007,1.016
01:36.3,0,0.023,0.007,1.017
01:36.5,0,0.023,0.006,1.016
01:36.7,0,0.022,0.007,1.017
01:36.9,0,0.022,0.007,1.017
01:37.2,0,0.022,0.007,1.017
01:37.4,0,0.022,0.006,1.016
01:37.6,0,0.022,0.007,1.017
01:37.8,0,0.022,0.006,1.017
01:38.0,0,0.022,0.006,1.017
01:38.2,0,0.022,0.006,1.017
01:38.4,0,0.023,0.007,1.017
01:38.6,0,0.023,0.006,1.017
01:38.8,0,0.023,0.007,1.017
01:39.0,0,0.023,0.007,1.017
01:39.2,0,0.022,0.006,1.016
01:39.4,0,0.022,0.006,1.016
01:39.6,0,0.022,0.006,1.016
01:39.8,0,0.022,0.006,1.016
01:40.0,0,0.022,0.006,1.017
01:40.2,0,0.023,0.007,1.017
01:40.4,0,0.022,0.006,1.017
01:40.6,0,0.022,0.006,1.017
01:40.8,0,0.022,0.007,1.017
01:41.0,0,0.023,0.006,1.015
01:41.2,0,0.022,0.006,1.015
01:41.4,0,0.022,0.006,1.016
01:41.6,0,0.023,0.006,1.015
01:41.8,0,0.023,0.005,1.015
01:42.0,0,0.022,0.006,1.016
01:42.2,0,0.022,0.006,1.016
01:42.4,0,0.022,0.005,1.015
01:42.6,0,0.022,0.006,1.016
01:42.8,0,0.022,0.006,1.017
01:43.0,0,0.022,0.006,1.016
01:43.2,0,0.022,0.006,1.016
01:43.4,0,0.022,0.007,1.016
01:43.6,0,0.022,0.006,1.016
01:43.8,0,0.023,0.007,1.016
01:44.0,0,0.023,0.007,1.016
01:44.2,0,0.023,0.007,1.017
01:44.4,0,0.022,0.007,1.017
01:44.6,0,0.023,0.007,1.017
01:44.9,0,0.023,0.007,1.016
01:45.1,0,0.023,0.006,1.016
01:45.3,0,0.023,0.006,1.016
01:45.5,0,0.023,0.006,1.016
01:45.7,0,0.023,0.006,1.016
01:45.9,0,0.023,0.007,1.016
01:46.1,0,0.023,0.007,1.016
01:46.3,0,0.023,0.007,1.016
01:46.5,0,0.023,0.007,1.016
01:46.7,0,0.023,0.007,1.016
01:46.9,0,0.023,0.007,1.017
01:47.1,0,0.022,0.006,1.016
01:47.3,0,0.022,0.006,1.016
01:47.5,0,0.022,0.006,1.016
01:47.7,0,0.022,0.006,1.016
01:47.9,0,0.023,0.006,1.016
01:48.1,0,0.023,0.007,1.016
01:48.3,0,0.023,0.007,1.017
01:48.5,0,0.023,0.007,1.016
01:48.7,0,0.023,0.007,1.016
01:48.9,0,0.023,0.006,1.016
01:49.1,0,0.023,0.006,1.016
01:49.3,0,0.023,0.006,1.016
01:49.5,0,0.023,0.006,1.016
01:49.7,0,0.023,0.006,1.016
01:49.9,0,0.023,0.007,1.016
01:50.1,0,0.022,0.007,1.016
01:50.3,0,0.022,0.006,1.016
01:50.5,0,0.023,0.006,1.016
01:50.7,0,0.022,0.006,1.016
01:50.9,0,0.022,0.006,1.017
01:51.1,1,0.022,0.006,1.017
01:51.3,1,0.022,0.006,1.017
01:51.5,1,0.022,0.006,1.017
01:51.7,1,0.022,0.006,1.017
01:51.9,1,0.023,0.006,1.017
01:52.1,1,0.023,0.006,1.017
01:52.3,0,0.023,0.007,1.017
01:52.6,0,0.023,0.006,1.017
01:52.8,0,0.023,0.007,1.017
01:53.0,0,0.023,0.007,1.017
01:53.2,0,0.023,0.007,1.017
01:53.4,0,0.023,0.007,1.017
01:53.6,0,0.023,0.007,1.017
01:53.8,0,0.023,0.007,1.016
01:54.0,0,0.023,0.007,1.015
01:54.2,0,0.022,0.007,1.016
01:54.4,0,0.023,0.007,1.016
01:54.6,0,0.023,0.007,1.015
01:54.8,0,0.023,0.007,1.016
01:55.0,0,0.023,0.006,1.017
01:55.2,0,0.023,0.006,1.016
01:55.4,0,0.023,0.006,1.016
01:55.6,0,0.023,0.006,1.017
01:55.8,0,0.023,0.006,1.016
01:56.0,0,0.023,0.007,1.016
01:56.2,0,0.023,0.007,1.016
01:56.4,0,0.023,0.007,1.016
01:56.6,0,0.023,0.007,1.016
01:56.8,0,0.023,0.007,1.016
01:57.0,0,0.023,0.006,1.016
01:57.2,0,0.023,0.006,1.017
01:57.4,0,0.023,0.007,1.017
01:57.6,0,0.023,0.006,1.017
01:57.8,0,0.023,0.007,1.017
01:58.0,0,0.023,0.007,1.016
01:58.2,0,0.023,0.007,1.017
01:58.4,0,0.023,0.007,1.017
01:58.6,0,0.023,0.007,1.016
01:58.8,0,0.023,0.007,1.016
01:59.0,0,0.023,0.007,1.016
01:59.2,0,0.023,0.007,1.016
01:59.4,0,0.023,0.006,1.016
01:59.6,0,0.023,0.007,1.016
01:59.9,0,0.023,0.006,1.016
02:00.1,0,0.022,0.006,1.016
02:00.3,0,0.022,0.006,1.016
02:00.5,0,0.022,0.007,1.016
02:00.7,0,0.022,0.007,1.016
02:00.9,0,0.022,0.007,1.017
02:01.1,0,0.023,0.008,1.017
02:01.3,0,0.022,0.007,1.019
02:01.5,0,0.023,0.007,1.019
02:01.7,0,0.022,0.007,1.019
02:01.9,0,0.023,0.007,1.019
02:02.1,0,0.023,0.007,1.018
02:02.3,0,0.023,0.007,1.017
02:02.5,0,0.022,0.007,1.017
02:02.7,0,0.022,0.007,1.016
02:02.9,0,0.022,0.006,1.016
02:03.1,0,0.023,0.007,1.017
02:03.3,0,0.023,0.007,1.017
02:03.5,0,0.023,0.007,1.017
02:03.7,0,0.023,0.007,1.017
02:03.9,0,0.023,0.006,1.017
02:04.1,0,0.022,0.007,1.017
02:04.3,0,0.022,0.006,1.016
02:04.5,0,0.022,0.006,1.017
02:04.7,0,0.022,0.006,1.017
02:04.9,0,0.023,0.006,1.016
02:05.1,0,0.023,0.006,1.017
02:05.3,0,0.022,0.006,1.017
02:05.5,0,0.023,0.006,1.017
02:05.7,0,0.023,0.006,1.017
02:05.9,0,0.022,0.006,1.017
02:06.1,0,0.023,0.006,1.016
02:06.3,0,0.023,0.007,1.016
02:06.6,0,0.023,0.006,1.016
02:06.8,0,0.023,0.006,1.015
02:07.0,0,0.023,0.007,1.015
02:07.2,0,0.022,0.007,1.016
02:07.4,0,0.023,0.007,1.016
02:07.6,0,0.023,0.007,1.016
02:07.8,0,0.023,0.007,1.016
02:08.0,0,0.023,0.006,1.017
02:08.2,0,0.023,0.006,1.017
02:08.4,0,0.023,0.006,1.017
02:08.6,0,0.022,0.006,1.018
02:08.8,0,0.022,0.006,1.017
02:09.0,0,0.022,0.006,1.016
02:09.2,0,0.022,0.007,1.016
02:09.4,0,0.022,0.007,1.016
02:09.6,0,0.023,0.007,1.015
02:09.8,0,0.023,0.007,1.016
02:10.0,0,0.023,0.007,1.016
02:10.2,0,0.023,0.007,1.016
02:10.4,0,0.023,0.007,1.016
02:10.6,0,0.023,0.006,1.016
02:10.8,0,0.023,0.006,1.016
02:11.0,0,0.023,0.007,1.017
02:11.2,0,0.023,0.007,1.016
02:11.4,0,0.022,0.006,1.016
02:11.6,0,0.022,0.007,1.017
02:11.8,0,0.022,0.007,1.017
02:12.0,0,0.022,0.006,1.017
02:12.2,0,0.023,0.006,1.017
02:12.4,0,0.023,0.006,1.017
02:12.6,0,0.023,0.006,1.016
02:12.8,0,0.022,0.006,1.016
02:13.0,0,0.023,0.006,1.016
02:13.2,0,0.023,0.006,1.017
02:13.5,0,0.023,0.006,1.017
02:13.7,0,0.023,0.006,1.017
02:13.9,0,0.023,0.006,1.018
02:14.1,0,0.023,0.006,1.017
02:14.3,0,0.022,0.006,1.017
02:14.5,0,0.023,0.007,1.018
02:14.7,0,0.023,0.007,1.018
02:14.9,0,0.023,0.007,1.017
02:15.1,0,0.023,0.007,1.017
02:15.3,0,0.023,0.007,1.017
02:15.5,0,0.023,0.007,1.016
02:15.7,0,0.023,0.007,1.016
02:15.9,0,0.023,0.006,1.017
02:16.1,0,0.023,0.007,1.016
02:16.3,0,0.023,0.007,1.017
02:16.5,0,0.023,0.006,1.016
02:16.7,0,0.023,0.006,1.016
02:16.9,0,0.023,0.006,1.016
02:17.1,0,0.023,0.006,1.017
02:17.3,0,0.023,0.006,1.016
02:17.5,0,0.023,0.006,1.016
02:17.7,0,0.023,0.007,1.016
02:17.9,0,0.023,0.007,1.016
02:18.1,0,0.023,0.007,1.016
02:18.3,0,0.023,0.006,1.016
02:18.5,0,0.023,0.006,1.016
02:18.7,0,0.022,0.006,1.018
02:18.9,0,0.023,0.006,1.017
02:19.1,0,0.023,0.006,1.017
02:19.3,0,0.023,0.007,1.017
02:19.5,0,0.022,0.006,1.017
02:19.7,0,0.023,0.007,1.016
02:19.9,0,0.022,0.007,1.016
02:20.1,0,0.022,0.006,1.017
02:20.3,0,0.022,0.007,1.016
02:20.5,0,0.023,0.006,1.016
02:20.7,0,0.022,0.006,1.017
02:21.0,0,0.023,0.006,1.017
02:21.2,0,0.023,0.007,1.016
02:21.4,0,0.022,0.006,1.016
02:21.6,0,0.023,0.007,1.016
02:21.8,0,0.023,0.007,1.016
02:22.0,0,0.023,0.007,1.016
02:22.2,0,0.023,0.007,1.017
02:22.4,0,0.023,0.007,1.017
02:22.6,0,0.023,0.007,1.017
02:22.8,0,0.023,0.007,1.017
02:23.0,0,0.023,0.007,1.017
02:23.2,0,0.023,0.006,1.016
02:23.4,0,0.023,0.006,1.017
02:23.6,0,0.023,0.006,1.017
02:23.8,0,0.023,0.006,1.017
02:24.0,0,0.023,0.006,1.017
02:24.2,0,0.023,0.006,1.017
02:24.4,0,0.023,0.006,1.016
02:24.6,0,0.023,0.006,1.017
02:24.8,0,0.023,0.007,1.017
02:25.0,0,0.023,0.006,1.016
02:25.2,0,0.023,0.007,1.016
02:25.4,1,0.022,0.007,1.017
02:25.6,1,0.022,0.006,1.016
02:25.8,1,0.023,0.007,1.016
02:26.0,1,0.023,0.007,1.016
02:26.2,1,0.023,0.006,1.015
02:26.4,1,0.024,0.006,1.015
02:26.6,0,0.023,0.007,1.015
02:26.8,0,0.023,0.006,1.016
02:27.0,0,0.023,0.007,1.015
02:27.2,0,0.023,0.007,1.016
02:27.4,0,0.022,0.007,1.016
02:27.6,0,0.022,0.007,1.016
02:27.8,0,0.022,0.007,1.016
02:28.0,0,0.022,0.007,1.016
02:28.2,0,0.022,0.007,1.016
02:28.4,0,0.022,0.007,1.017
02:28.6,0,0.022,0.007,1.016
02:28.9,0,0.022,0.007,1.017
02:29.1,0,0.022,0.008,1.017
02:29.3,0,0.022,0.007,1.016
02:29.5,0,0.022,0.007,1.016
02:29.7,0,0.022,0.007,1.017
02:29.9,0,0.022,0.007,1.017
02:30.1,0,0.023,0.006,1.016
02:30.3,0,0.023,0.006,1.017
02:30.5,1,0.022,0.006,1.017
02:30.7,1,0.023,0.007,1.016
02:30.9,1,0.023,0.006,1.016
02:31.1,1,0.022,0.006,1.016
02:31.3,1,0.023,0.006,1.016
02:31.5,0,0.023,0.006,1.016
02:31.7,0,0.022,0.005,1.016
02:31.9,0,0.023,0.006,1.017
02:32.1,0,0.023,0.006,1.016
02:32.3,0,0.023,0.006,1.016
02:32.5,0,0.023,0.006,1.016
02:32.7,0,0.023,0.007,1.016
02:32.9,0,0.022,0.007,1.016
02:33.1,0,0.023,0.007,1.016
02:33.3,0,0.023,0.007,1.016
02:33.5,0,0.023,0.007,1.016
02:33.7,0,0.023,0.007,1.016
02:33.9,0,0.023,0.007,1.016
02:34.1,0,0.023,0.007,1.016
02:34.3,0,0.023,0.006,1.016
02:34.5,0,0.023,0.007,1.016
02:34.7,0,0.023,0.007,1.016
02:34.9,0,0.023,0.006,1.015
02:35.1,0,0.023,0.006,1.015
02:35.3,0,0.023,0.007,1.017
02:35.5,0,0.022,0.007,1.016
02:35.7,0,0.022,0.006,1.016
02:35.9,0,0.022,0.007,1.017
02:36.1,0,0.022,0.007,1.017
02:36.3,0,0.023,0.007,1.016
02:36.6,0,0.023,0.006,1.017
02:36.8,0,0.023,0.007,1.017
02:37.0,0,0.023,0.007,1.017
02:37.2,0,0.023,0.007,1.017
02:37.4,1,0.022,0.007,1.017
02:37.6,1,0.022,0.007,1.017
02:37.8,1,0.023,0.007,1.017
02:38.0,1,0.023,0.007,1.017
02:38.2,1,0.023,0.006,1.016
02:38.4,1,0.023,0.007,1.016
02:38.6,0,0.023,0.007,1.016
02:38.8,0,0.023,0.007,1.016
02:39.0,0,0.023,0.006,1.015
02:39.2,0,0.023,0.006,1.015
02:39.4,0,0.023,0.007,1.016
02:39.6,0,0.023,0.006,1.016
02:39.8,0,0.022,0.006,1.015
02:40.0,0,0.022,0.007,1.017
02:40.2,0,0.022,0.007,1.017
02:40.4,0,0.022,0.006,1.016
02:40.6,0,0.022,0.007,1.016
02:40.8,0,0.022,0.007,1.016
02:41.0,0,0.022,0.007,1.016
02:41.2,0,0.022,0.007,1.016
02:41.4,0,0.022,0.007,1.016
02:41.6,0,0.022,0.006,1.016
02:41.8,0,0.022,0.006,1.016
02:42.0,0,0.022,0.006,1.016
02:42.2,0,0.022,0.007,1.016
02:42.4,0,0.022,0.007,1.016
02:42.6,0,0.022,0.007,1.016
02:42.8,0,0.022,0.007,1.016
02:43.0,0,0.022,0.007,1.016
02:43.2,0,0.022,0.007,1.016
02:43.4,0,0.022,0.007,1.016
02:43.6,0,0.022,0.007,1.016
02:43.8,0,0.022,0.007,1.016
02:44.0,0,0.022,0.007,1.017
02:44.3,0,0.022,0.007,1.017
02:44.5,0,0.022,0.007,1.017
02:44.7,0,0.022,0.007,1.017
02:44.9,0,0.023,0.007,1.017
02:45.1,0,0.022,0.007,1.017
02:45.3,0,0.023,0.007,1.017
02:45.5,0,0.023,0.007,1.017
02:45.7,0,0.023,0.007,1.017
02:45.9,0,0.023,0.007,1.017
02:46.1,0,0.022,0.007,1.016
02:46.3,0,0.022,0.007,1.016
02:46.5,0,0.022,0.007,1.016
02:46.7,1,0.023,0.007,1.016
02:46.9,1,0.023,0.007,1.016
02:47.1,1,0.023,0.007,1.016
02:47.3,1,0.023,0.007,1.016
02:47.5,1,0.023,0.007,1.016
02:47.7,1,0.023,0.007,1.016
02:47.9,0,0.023,0.006,1.016
02:48.1,0,0.023,0.007,1.017
02:48.3,0,0.023,0.006,1.016
02:48.5,0,0.023,0.007,1.017
02:48.7,0,0.023,0.007,1.016
02:48.9,0,0.023,0.007,1.015
02:49.1,0,0.023,0.007,1.014
02:49.3,0,0.023,0.007,1.016
02:49.5,0,0.023,0.007,1.015
02:49.7,0,0.022,0.007,1.016
02:49.9,0,0.022,0.007,1.017
02:50.1,0,0.022,0.007,1.017
02:50.3,0,0.022,0.007,1.017
02:50.5,0,0.023,0.007,1.017
02:50.7,0,0.023,0.007,1.016
02:50.9,0,0.022,0.007,1.017
02:51.1,0,0.022,0.007,1.018
02:51.3,0,0.022,0.007,1.017
02:51.5,0,0.022,0.007,1.017
02:51.8,0,0.022,0.008,1.018
02:52.0,0,0.022,0.007,1.017
02:52.2,0,0.023,0.007,1.017
02:52.4,0,0.023,0.007,1.017
02:52.6,0,0.023,0.007,1.017
02:52.8,0,0.022,0.006,1.016
02:53.0,0,0.023,0.007,1.016
02:53.2,0,0.022,0.007,1.016
02:53.4,0,0.022,0.007,1.016
02:53.6,0,0.022,0.007,1.016
02:53.8,0,0.022,0.007,1.017
02:54.0,0,0.022,0.007,1.017
02:54.2,0,0.022,0.007,1.017
02:54.4,0,0.022,0.007,1.017
02:54.6,0,0.023,0.007,1.017
02:54.8,0,0.023,0.006,1.017
02:55.0,0,0.023,0.007,1.017
02:55.2,0,0.023,0.007,1.017
02:55.4,0,0.022,0.007,1.016
02:55.6,0,0.022,0.007,1.016
02:55.8,0,0.022,0.007,1.016
02:56.0,0,0.022,0.007,1.016
02:56.2,0,0.022,0.007,1.016
02:56.4,0,0.022,0.007,1.016
02:56.6,0,0.022,0.007,1.016
02:56.8,0,0.022,0.007,1.015
02:57.0,0,0.023,0.007,1.016
02:57.2,0,0.023,0.007,1.016
02:57.4,0,0.023,0.007,1.016
02:57.6,0,0.022,0.007,1.016
02:57.8,0,0.023,0.007,1.017
02:58.0,0,0.022,0.006,1.016
02:58.2,0,0.022,0.006,1.017
02:58.4,0,0.022,0.007,1.017
02:58.6,0,0.022,0.007,1.016
02:58.8,0,0.022,0.007,1.016
02:59.0,0,0.022,0.007,1.017
02:59.3,0,0.023,0.007,1.016
02:59.5,0,0.023,0.007,1.016
02:59.7,0,0.023,0.008,1.017
02:59.9,0,0.023,0.008,1.017
03:00.1,1,0.023,0.007,1.017
03:00.3,1,0.023,0.007,1.017
03:00.5,1,0.023,0.007,1.017
03:00.7,1,0.023,0.007,1.017
03:00.9,1,0.023,0.007,1.017
03:01.1,0,0.023,0.008,1.018
03:01.3,0,0.023,0.007,1.018
03:01.5,0,0.023,0.007,1.018
03:01.7,0,0.023,0.008,1.018
03:01.9,0,0.023,0.007,1.017
03:02.1,0,0.023,0.007,1.016
03:02.3,0,0.023,0.007,1.016
03:02.5,0,0.023,0.006,1.016
03:02.7,0,0.023,0.007,1.016
03:02.9,0,0.023,0.006,1.016
03:03.1,0,0.023,0.006,1.016
03:03.3,0,0.023,0.006,1.017
03:03.5,0,0.023,0.006,1.016
03:03.7,0,0.023,0.006,1.016
03:03.9,0,0.023,0.006,1.017
03:04.1,0,0.023,0.006,1.016
03:04.3,0,0.023,0.006,1.015
03:04.5,0,0.023,0.007,1.016
03:04.7,0,0.023,0.006,1.016
03:04.9,0,0.023,0.006,1.016
03:05.1,0,0.023,0.006,1.016
03:05.3,0,0.023,0.006,1.016
03:05.5,0,0.023,0.006,1.016
03:05.7,0,0.023,0.006,1.016
03:05.9,0,0.023,0.006,1.017
03:06.2,0,0.023,0.007,1.016
03:06.4,0,0.023,0.007,1.016
03:06.6,0,0.023,0.007,1.016
03:06.8,1,0.023,0.007,1.016
03:07.0,1,0.023,0.007,1.016
03:07.2,1,0.023,0.007,1.017
03:07.4,1,0.023,0.007,1.017
03:07.6,1,0.023,0.007,1.017
03:07.8,0,0.022,0.007,1.017
03:08.0,0,0.022,0.007,1.016
03:08.2,0,0.022,0.007,1.016
03:08.4,0,0.022,0.006,1.016
03:08.6,0,0.022,0.006,1.016
03:08.8,0,0.022,0.007,1.017
03:09.0,0,0.022,0.006,1.017
03:09.2,0,0.022,0.006,1.016
03:09.4,0,0.022,0.006,1.016
03:09.6,0,0.022,0.006,1.016
03:09.8,0,0.022,0.006,1.016
03:10.0,0,0.022,0.006,1.016
03:10.2,0,0.022,0.006,1.016
03:10.4,0,0.022,0.006,1.016
03:10.6,0,0.023,0.007,1.016
03:10.8,0,0.023,0.006,1.016
03:11.0,0,0.023,0.007,1.016
03:11.2,0,0.023,0.007,1.016
03:11.4,0,0.023,0.007,1.016
03:11.6,1,0.022,0.007,1.016
03:11.8,1,0.023,0.007,1.014
03:12.0,1,0.023,0.006,1.013
03:12.2,1,0.022,0.006,1.014
03:12.4,1,0.023,0.007,1.014
03:12.6,1,0.023,0.006,1.014
03:12.8,0,0.023,0.007,1.017
03:13.0,0,0.022,0.007,1.018
03:13.3,0,0.022,0.007,1.016
03:13.5,0,0.023,0.007,1.016
03:13.7,0,0.023,0.006,1.019
03:13.9,0,0.023,0.007,1.021
03:14.1,0,0.023,0.007,1.019
03:14.3,0,0.024,0.007,1.019
03:14.5,0,0.023,0.007,1.02
03:14.7,0,0.023,0.008,1.018
03:14.9,0,0.023,0.006,1.015
03:15.1,0,0.022,0.007,1.017
03:15.3,0,0.022,0.007,1.018
03:15.5,0,0.022,0.007,1.017
03:15.7,0,0.023,0.007,1.017
03:15.9,0,0.023,0.007,1.017
03:16.1,1,0.023,0.007,1.017
03:16.3,1,0.023,0.007,1.017
03:16.5,1,0.023,0.007,1.017
03:16.7,1,0.023,0.008,1.017
03:16.9,1,0.023,0.007,1.017
03:17.1,1,0.023,0.007,1.016
03:17.3,0,0.023,0.008,1.016
03:17.5,0,0.023,0.007,1.016
03:17.7,0,0.023,0.007,1.016
03:17.9,0,0.023,0.007,1.016
03:18.1,0,0.023,0.007,1.017
03:18.3,0,0.023,0.007,1.017
03:18.5,0,0.023,0.007,1.017
03:18.7,0,0.022,0.006,1.016
03:18.9,0,0.023,0.007,1.017
03:19.1,0,0.023,0.006,1.016
03:19.3,0,0.023,0.006,1.016
03:19.5,0,0.023,0.006,1.016
03:19.7,0,0.023,0.007,1.017
03:19.9,0,0.023,0.006,1.016
03:20.1,0,0.023,0.007,1.017
03:20.3,0,0.023,0.007,1.017
03:20.6,0,0.023,0.007,1.017
03:20.8,0,0.023,0.006,1.017
03:21.0,0,0.023,0.007,1.017
03:21.2,0,0.023,0.007,1.018
03:21.4,0,0.023,0.007,1.017
03:21.6,0,0.023,0.007,1.017
03:21.8,0,0.023,0.007,1.017
03:22.0,0,0.022,0.007,1.017
03:22.2,0,0.022,0.006,1.017
03:22.4,0,0.022,0.006,1.017
03:22.6,0,0.023,0.006,1.017
03:22.8,0,0.023,0.006,1.017
03:23.0,0,0.023,0.006,1.017
03:23.2,0,0.023,0.007,1.017
03:23.4,0,0.023,0.007,1.016
03:23.6,0,0.023,0.007,1.016
03:23.8,0,0.023,0.007,1.016
03:24.0,0,0.023,0.007,1.016
03:24.2,0,0.023,0.006,1.016
03:24.4,0,0.023,0.006,1.017
03:24.6,0,0.023,0.006,1.017
03:24.8,0,0.023,0.006,1.017
03:25.0,0,0.023,0.007,1.017
03:25.2,0,0.023,0.006,1.017
03:25.4,0,0.023,0.006,1.017
03:25.6,0,0.023,0.006,1.017
03:25.8,0,0.023,0.007,1.017
03:26.0,0,0.023,0.006,1.017
03:26.2,0,0.023,0.006,1.017
03:26.4,0,0.023,0.006,1.017
03:26.6,0,0.023,0.007,1.017
03:26.8,0,0.023,0.007,1.017
03:27.0,0,0.023,0.007,1.016
03:27.3,0,0.022,0.007,1.018
03:27.5,0,0.023,0.007,1.017
03:27.7,0,0.022,0.006,1.017
03:27.9,0,0.023,0.006,1.017
03:28.1,0,0.022,0.007,1.017
03:28.3,0,0.023,0.006,1.015
03:28.5,0,0.023,0.006,1.016
03:28.7,0,0.023,0.007,1.017
03:28.9,0,0.022,0.007,1.017
03:29.1,0,0.023,0.006,1.017
03:29.3,0,0.023,0.007,1.018
03:29.5,0,0.023,0.007,1.017
03:29.7,0,0.023,0.006,1.017
03:29.9,0,0.023,0.006,1.017
03:30.1,0,0.023,0.006,1.017
03:30.3,0,0.023,0.006,1.017
03:30.5,0,0.023,0.006,1.017
03:30.7,0,0.023,0.006,1.017
03:30.9,0,0.023,0.007,1.018
03:31.1,0,0.023,0.007,1.017
03:31.3,0,0.023,0.007,1.017
03:31.5,0,0.023,0.007,1.017
03:31.7,0,0.022,0.007,1.017
03:31.9,0,0.022,0.005,1.017
03:32.1,0,0.023,0.007,1.017
03:32.3,0,0.023,0.007,1.017
03:32.5,0,0.023,0.007,1.017
03:32.7,0,0.023,0.008,1.018
03:32.9,0,0.024,0.008,1.018
03:33.1,0,0.023,0.007,1.017
03:33.3,0,0.023,0.007,1.017
03:33.5,0,0.023,0.007,1.017
03:33.7,0,0.023,0.006,1.016
03:33.9,0,0.023,0.006,1.016
03:34.1,0,0.023,0.007,1.017
03:34.3,0,0.023,0.007,1.016
03:34.6,0,0.023,0.007,1.017
03:34.8,0,0.023,0.007,1.017
03:35.0,0,0.023,0.007,1.017
03:35.2,0,0.023,0.006,1.017
03:35.4,0,0.023,0.007,1.017
03:35.6,0,0.023,0.007,1.018
03:35.8,0,0.023,0.007,1.018
03:36.0,0,0.023,0.007,1.018
03:36.2,0,0.023,0.007,1.018
03:36.4,0,0.023,0.007,1.017
03:36.6,0,0.023,0.007,1.017
03:36.8,0,0.023,0.007,1.017
03:37.0,0,0.023,0.007,1.017
03:37.2,0,0.023,0.007,1.016
03:37.4,0,0.023,0.007,1.017
03:37.6,0,0.023,0.007,1.017
03:37.8,0,0.023,0.007,1.017
03:38.0,0,0.023,0.007,1.017
03:38.2,0,0.023,0.007,1.017
03:38.4,0,0.022,0.006,1.017
03:38.6,0,0.022,0.007,1.017
03:38.8,0,0.023,0.007,1.017
03:39.0,0,0.022,0.007,1.017
03:39.2,0,0.023,0.007,1.017
03:39.4,0,0.023,0.007,1.017
03:39.6,0,0.023,0.007,1.017
03:39.8,0,0.023,0.007,1.017
03:40.0,0,0.023,0.007,1.016
03:40.2,0,0.023,0.007,1.016
03:40.4,0,0.022,0.007,1.016
03:40.6,0,0.023,0.007,1.016
03:40.8,0,0.023,0.007,1.016
03:41.0,0,0.023,0.006,1.017
03:41.2,0,0.023,0.006,1.017
03:41.5,0,0.023,0.007,1.017
03:41.7,0,0.023,0.007,1.017
03:41.9,0,0.023,0.006,1.017
03:42.1,0,0.023,0.007,1.017
03:42.3,0,0.023,0.007,1.017
03:42.5,0,0.023,0.007,1.017
03:42.7,0,0.023,0.007,1.017
03:42.9,0,0.023,0.007,1.017
03:43.1,0,0.023,0.007,1.017
03:43.3,0,0.023,0.006,1.016
03:43.5,0,0.023,0.006,1.016
03:43.7,0,0.023,0.006,1.016
03:43.9,0,0.023,0.006,1.016
03:44.1,0,0.023,0.006,1.016
03:44.3,0,0.023,0.006,1.016
03:44.5,0,0.023,0.007,1.016
03:44.7,0,0.023,0.007,1.016
03:44.9,0,0.023,0.007,1.016
03:45.1,0,0.023,0.006,1.017
03:45.3,0,0.023,0.006,1.016
03:45.5,0,0.023,0.006,1.016
03:45.7,0,0.023,0.006,1.016
03:45.9,0,0.023,0.006,1.017
03:46.1,0,0.023,0.006,1.016
03:46.3,0,0.023,0.007,1.017
03:46.5,0,0.023,0.007,1.017
03:46.7,0,0.023,0.006,1.017
03:46.9,0,0.022,0.007,1.017
03:47.1,0,0.022,0.007,1.017
03:47.3,0,0.022,0.006,1.017
03:47.5,0,0.022,0.007,1.017
03:47.7,0,0.022,0.007,1.017
03:47.9,0,0.022,0.007,1.017
03:48.1,0,0.022,0.007,1.017
03:48.3,0,0.023,0.006,1.016
03:48.6,0,0.023,0.006,1.016
03:48.8,0,0.023,0.007,1.017
03:49.0,0,0.022,0.007,1.017
03:49.2,0,0.022,0.007,1.017
03:49.4,0,0.023,0.007,1.017
03:49.6,0,0.022,0.007,1.017
03:49.8,0,0.023,0.007,1.017
03:50.0,0,0.023,0.007,1.017
03:50.2,0,0.023,0.007,1.017
03:50.4,0,0.023,0.007,1.016
03:50.6,0,0.023,0.007,1.017
03:50.8,0,0.023,0.007,1.017
03:51.0,0,0.023,0.007,1.017
03:51.2,0,0.023,0.007,1.017
03:51.4,0,0.023,0.007,1.017
03:51.6,0,0.023,0.007,1.016
03:51.8,0,0.023,0.007,1.017
03:52.0,0,0.023,0.007,1.017
03:52.2,0,0.023,0.007,1.017
03:52.4,0,0.023,0.007,1.017
03:52.6,0,0.023,0.007,1.017
03:52.8,0,0.023,0.007,1.017
03:53.0,0,0.023,0.006,1.017
03:53.2,0,0.023,0.007,1.017
03:53.4,0,0.023,0.007,1.017
03:53.6,0,0.023,0.007,1.017
03:53.8,0,0.022,0.007,1.017
03:54.0,1,0.022,0.007,1.017
03:54.2,1,0.023,0.007,1.017
03:54.4,1,0.023,0.007,1.017
03:54.6,1,0.023,0.007,1.017
03:54.8,1,0.022,0.007,1.017
03:55.0,1,0.022,0.007,1.017
03:55.2,0,0.022,0.007,1.017
03:55.4,0,0.022,0.007,1.017
03:55.7,0,0.022,0.007,1.017
03:55.9,0,0.022,0.006,1.017
03:56.1,0,0.022,0.006,1.016
03:56.3,0,0.022,0.006,1.017
03:56.5,0,0.025,0.007,1.015
03:56.7,0,0.024,0.007,1.016
03:56.9,0,0.025,0.007,1.016
03:57.1,0,0.025,0.006,1.015
03:57.3,0,0.025,0.007,1.015
03:57.5,0,0.023,0.007,1.018
03:57.7,0,0.025,0.006,1.015
03:57.9,0,0.025,0.006,1.015
03:58.1,0,0.024,0.007,1.016
03:58.3,0,0.024,0.007,1.015
03:58.5,0,0.024,0.006,1.014
03:58.7,0,0.023,0.007,1.015
03:58.9,0,0.022,0.007,1.016
03:59.1,0,0.023,0.007,1.015
03:59.3,1,0.023,0.007,1.016
03:59.5,1,0.023,0.007,1.017
03:59.7,1,0.023,0.007,1.016
03:59.9,1,0.023,0.007,1.016
04:00.1,1,0.023,0.007,1.017
04:00.3,1,0.023,0.007,1.017
04:00.5,0,0.023,0.007,1.017
04:00.7,0,0.023,0.007,1.017
04:00.9,0,0.023,0.007,1.017
04:01.1,0,0.022,0.007,1.017
04:01.3,0,0.023,0.007,1.017
04:01.5,0,0.023,0.007,1.017
04:01.7,0,0.023,0.006,1.016
04:01.9,0,0.023,0.006,1.017
04:02.2,0,0.023,0.007,1.017
04:02.4,0,0.023,0.006,1.016
04:02.6,0,0.023,0.007,1.017
04:02.8,0,0.023,0.007,1.017
04:03.0,0,0.023,0.007,1.017
04:03.2,0,0.023,0.007,1.017
04:03.4,0,0.023,0.007,1.017
04:03.6,0,0.023,0.007,1.016
04:03.8,0,0.023,0.007,1.016
04:04.0,0,0.023,0.007,1.016
04:04.2,0,0.023,0.006,1.016
04:04.4,0,0.023,0.007,1.017
04:04.6,0,0.023,0.007,1.017
04:04.8,0,0.023,0.006,1.017
04:05.0,0,0.023,0.006,1.017
04:05.2,0,0.023,0.007,1.016
04:05.4,0,0.023,0.006,1.016
04:05.6,0,0.023,0.006,1.016
04:05.8,0,0.023,0.006,1.016
04:06.0,0,0.023,0.006,1.016
04:06.2,0,0.023,0.007,1.016
04:06.4,0,0.023,0.006,1.016
04:06.6,0,0.022,0.007,1.016
04:06.8,0,0.022,0.007,1.016
04:07.0,0,0.022,0.007,1.017
04:07.2,0,0.022,0.007,1.017
04:07.5,0,0.03,0.007,1.017
04:07.7,0,0.023,0.007,1.017
04:07.9,0,0.023,0.007,1.016
04:08.1,0,0.023,0.007,1.016
04:08.3,0,0.023,0.007,1.017
04:08.5,0,0.023,0.007,1.016
04:08.7,0,0.023,0.007,1.016
04:08.9,0,0.023,0.007,1.016
04:09.1,0,0.023,0.007,1.016
04:09.3,0,0.023,0.007,1.015
04:09.5,0,0.022,0.007,1.016
04:09.7,0,0.022,0.007,1.016
04:09.9,0,0.022,0.006,1.016
04:10.1,0,0.022,0.007,1.017
04:10.3,0,0.023,0.007,1.017
04:10.5,0,0.023,0.007,1.017
04:10.7,1,0.023,0.007,1.017
04:10.9,1,0.023,0.007,1.017
04:11.1,1,0.023,0.007,1.017
04:11.3,1,0.023,0.006,1.016
04:11.5,1,0.023,0.006,1.016
04:11.7,1,0.023,0.006,1.017
04:11.9,0,0.022,0.006,1.016
04:12.1,0,0.023,0.006,1.016
04:12.3,0,0.023,0.007,1.017
04:12.6,0,0.023,0.007,1.016
04:12.8,0,0.023,0.007,1.016
04:13.0,0,0.023,0.007,1.016
04:13.2,0,0.023,0.006,1.016
04:13.4,0,0.022,0.006,1.016
04:13.6,0,0.022,0.006,1.016
04:13.8,0,0.023,0.006,1.017
04:14.0,0,0.022,0.006,1.016
04:14.2,0,0.023,0.007,1.017
04:14.4,0,0.023,0.007,1.017
04:14.6,0,0.023,0.007,1.016
04:14.8,0,0.023,0.007,1.017
04:15.0,0,0.023,0.007,1.017
04:15.2,0,0.023,0.006,1.016
04:15.4,1,0.023,0.007,1.017
04:15.6,1,0.023,0.007,1.017
04:15.8,1,0.022,0.007,1.017
04:16.0,1,0.022,0.007,1.017
04:16.2,1,0.022,0.008,1.017
04:16.4,0,0.023,0.008,1.017
04:16.6,0,0.023,0.007,1.017
04:16.8,0,0.023,0.007,1.018
04:17.0,0,0.023,0.007,1.018
04:17.2,0,0.023,0.007,1.017
04:17.4,0,0.023,0.007,1.017
04:17.6,0,0.023,0.007,1.017
04:17.8,0,0.023,0.006,1.016
04:18.0,0,0.023,0.007,1.016
04:18.2,0,0.023,0.007,1.017
04:18.4,0,0.023,0.007,1.017
04:18.6,0,0.023,0.007,1.017
04:18.9,0,0.023,0.007,1.017
04:19.1,0,0.022,0.007,1.017
04:19.3,0,0.023,0.007,1.017
04:19.5,0,0.023,0.007,1.017
04:19.7,0,0.023,0.006,1.017
04:19.9,0,0.023,0.007,1.017
04:20.1,0,0.023,0.007,1.017
04:20.3,0,0.023,0.007,1.017
04:20.5,0,0.023,0.007,1.018
04:20.7,0,0.023,0.007,1.017
04:20.9,0,0.023,0.008,1.017
04:21.1,0,0.023,0.008,1.017
04:21.3,0,0.023,0.007,1.016
04:21.5,0,0.023,0.007,1.015
04:21.7,0,0.023,0.007,1.015
04:21.9,0,0.022,0.007,1.016
04:22.1,0,0.022,0.007,1.016
04:22.3,1,0.023,0.007,1.016
04:22.5,1,0.023,0.007,1.017
04:22.7,1,0.022,0.007,1.018
04:22.9,1,0.022,0.007,1.018
04:23.1,1,0.022,0.007,1.018
04:23.3,0,0.022,0.007,1.019
04:23.5,0,0.022,0.007,1.017
04:23.7,0,0.022,0.007,1.017
04:23.9,0,0.023,0.007,1.016
04:24.1,0,0.023,0.007,1.016
04:24.3,0,0.023,0.006,1.015
04:24.5,0,0.023,0.007,1.016
04:24.7,0,0.023,0.007,1.016
04:24.9,0,0.023,0.007,1.015
04:25.1,0,0.023,0.007,1.016
04:25.3,0,0.023,0.007,1.016
04:25.5,0,0.023,0.007,1.016
04:25.8,0,0.023,0.007,1.017
04:26.0,0,0.022,0.007,1.016
04:26.2,0,0.022,0.007,1.016
04:26.4,0,0.022,0.007,1.017
04:26.6,0,0.022,0.007,1.016
04:26.8,0,0.023,0.007,1.016
04:27.0,1,0.022,0.006,1.017
04:27.2,1,0.023,0.007,1.017
04:27.4,1,0.023,0.006,1.016
04:27.6,1,0.023,0.006,1.017
04:27.8,1,0.023,0.007,1.017
04:28.0,0,0.023,0.007,1.016
04:28.2,0,0.023,0.007,1.017
04:28.4,0,0.023,0.007,1.018
04:28.6,0,0.023,0.007,1.017
04:28.8,0,0.023,0.007,1.017
04:29.0,0,0.023,0.007,1.017
04:29.2,0,0.023,0.007,1.017
04:29.4,0,0.023,0.007,1.016
04:29.6,0,0.023,0.007,1.016
04:29.8,0,0.023,0.007,1.016
04:30.0,0,0.023,0.007,1.016
04:30.2,0,0.023,0.006,1.016
04:30.4,0,0.023,0.006,1.017
04:30.6,0,0.023,0.006,1.017
04:30.8,0,0.023,0.006,1.017
04:31.0,0,0.023,0.006,1.017
04:31.2,0,0.023,0.006,1.017
04:31.4,1,0.023,0.006,1.017
04:31.6,1,0.023,0.007,1.017
04:31.8,1,0.023,0.006,1.017
04:32.0,1,0.023,0.007,1.017
04:32.3,1,0.023,0.007,1.016
04:32.5,0,0.023,0.006,1.016
04:32.7,0,0.023,0.007,1.017
04:32.9,0,0.023,0.007,1.017
04:33.1,0,0.023,0.007,1.017
04:33.3,0,0.023,0.007,1.017
04:33.5,0,0.023,0.007,1.017
04:33.7,0,0.023,0.007,1.017
04:33.9,0,0.023,0.007,1.017
04:34.1,0,0.023,0.007,1.017
04:34.3,0,0.023,0.007,1.017
04:34.5,0,0.023,0.007,1.017
04:34.7,0,0.023,0.007,1.017
04:34.9,0,0.023,0.007,1.017
04:35.1,0,0.023,0.007,1.016
04:35.3,0,0.023,0.007,1.017
04:35.5,0,0.023,0.007,1.017
04:35.7,0,0.023,0.007,1.017
04:36.0,0,0.023,0.007,1.017
04:36.1,0,0.023,0.007,1.017
04:36.3,0,0.023,0.007,1.017
04:36.5,0,0.023,0.007,1.017
04:36.7,0,0.023,0.006,1.017
04:36.9,0,0.023,0.007,1.017
04:37.1,0,0.023,0.006,1.016
04:37.3,0,0.023,0.006,1.016
04:37.5,0,0.023,0.006,1.016
04:37.7,0,0.023,0.007,1.017
04:37.9,0,0.023,0.006,1.016
04:38.1,0,0.023,0.007,1.018
04:38.3,0,0.023,0.007,1.017
04:38.5,0,0.023,0.006,1.017
04:38.7,0,0.023,0.006,1.017
04:38.9,0,0.022,0.006,1.017
04:39.2,0,0.023,0.006,1.017
04:39.4,0,0.023,0.007,1.016
04:39.6,0,0.023,0.007,1.016
04:39.8,0,0.022,0.007,1.017
04:40.0,0,0.022,0.007,1.016
04:40.2,0,0.022,0.007,1.016
04:40.4,0,0.022,0.006,1.016
04:40.6,0,0.022,0.007,1.016
04:40.8,0,0.022,0.007,1.016
04:41.0,0,0.023,0.007,1.016
04:41.2,0,0.022,0.006,1.017
04:41.4,0,0.023,0.007,1.017
04:41.6,0,0.023,0.006,1.017
04:41.8,0,0.023,0.006,1.017
04:42.0,0,0.023,0.006,1.017
04:42.2,0,0.023,0.007,1.017
04:42.4,0,0.023,0.007,1.016
04:42.6,0,0.023,0.007,1.016
04:42.8,0,0.023,0.007,1.016
04:43.0,0,0.023,0.007,1.016
04:43.2,0,0.023,0.006,1.017
04:43.4,0,0.023,0.006,1.017
04:43.6,0,0.023,0.006,1.017
04:43.8,0,0.023,0.007,1.017
04:44.0,0,0.023,0.007,1.017
04:44.2,0,0.022,0.006,1.017
04:44.4,0,0.022,0.006,1.017
04:44.6,0,0.023,0.007,1.017
04:44.8,0,0.022,0.006,1.016
04:45.0,0,0.022,0.006,1.017
04:45.2,0,0.023,0.007,1.017
04:45.4,0,0.023,0.007,1.017
04:45.6,0,0.023,0.007,1.017
04:45.8,0,0.023,0.008,1.017
04:46.0,0,0.023,0.007,1.017
04:46.2,0,0.023,0.008,1.017
04:46.5,0,0.023,0.007,1.018
04:46.7,0,0.023,0.007,1.017
04:46.9,0,0.023,0.007,1.017
04:47.1,0,0.023,0.007,1.017
04:47.3,0,0.023,0.007,1.017
04:47.5,0,0.023,0.007,1.016
04:47.7,0,0.023,0.007,1.016
04:47.9,0,0.022,0.006,1.017
04:48.1,0,0.022,0.006,1.017
04:48.3,0,0.022,0.006,1.017
04:48.5,0,0.022,0.007,1.017
04:48.7,0,0.022,0.007,1.017
04:48.9,0,0.023,0.007,1.016
04:49.1,0,0.023,0.007,1.016
04:49.3,0,0.023,0.007,1.017
04:49.5,0,0.023,0.007,1.017
04:49.7,0,0.023,0.007,1.016
04:49.9,1,0.023,0.006,1.016
04:50.1,1,0.023,0.006,1.016
04:50.3,1,0.023,0.006,1.016
04:50.5,1,0.023,0.007,1.017
04:50.7,1,0.023,0.007,1.017
04:50.9,1,0.023,0.007,1.016
04:51.1,0,0.022,0.007,1.016
04:51.3,0,0.022,0.007,1.016
04:51.5,0,0.023,0.006,1.015
04:51.7,0,0.023,0.007,1.016
04:51.9,0,0.023,0.008,1.016
04:52.1,0,0.022,0.007,1.016
04:52.3,0,0.023,0.007,1.016
04:52.5,0,0.022,0.007,1.017
04:52.7,0,0.022,0.007,1.016
04:52.9,0,0.022,0.006,1.016
04:53.1,0,0.023,0.007,1.017
04:53.3,0,0.023,0.007,1.016
04:53.6,0,0.023,0.007,1.016
04:53.8,0,0.023,0.007,1.016
04:54.0,0,0.023,0.006,1.016
04:54.2,0,0.023,0.006,1.016
04:54.4,0,0.023,0.006,1.016
04:54.6,1,0.023,0.006,1.016
04:54.8,1,0.022,0.006,1.016
04:55.0,1,0.023,0.007,1.017
04:55.2,1,0.023,0.007,1.017
04:55.4,1,0.023,0.007,1.017
04:55.6,0,0.023,0.007,1.017
04:55.8,0,0.023,0.007,1.017
04:56.0,0,0.023,0.006,1.016
04:56.2,0,0.023,0.007,1.016
04:56.4,0,0.023,0.006,1.016
04:56.6,0,0.022,0.006,1.016
04:56.8,0,0.023,0.007,1.015
04:57.0,0,0.023,0.007,1.016
04:57.2,0,0.022,0.006,1.017
04:57.4,0,0.022,0.007,1.016
04:57.6,0,0.023,0.007,1.016
04:57.8,0,0.022,0.006,1.017
04:58.0,0,0.022,0.007,1.018
04:58.2,0,0.022,0.007,1.017
04:58.4,0,0.023,0.007,1.017
04:58.6,0,0.023,0.007,1.018
04:58.8,0,0.023,0.007,1.017
04:59.0,0,0.023,0.006,1.016
04:59.2,0,0.022,0.006,1.017
04:59.4,0,0.022,0.006,1.016
04:59.6,0,0.022,0.007,1.016
04:59.8,0,0.022,0.007,1.016
05:00.0,0,0.023,0.007,1.017
05:00.2,0,0.023,0.007,1.016
05:00.4,0,0.023,0.007,1.016
05:00.6,0,0.023,0.007,1.017
05:00.8,0,0.022,0.007,1.017
05:01.1,0,0.022,0.006,1.016
05:01.3,0,0.022,0.006,1.017
05:01.5,0,0.023,0.006,1.016
05:01.7,0,0.023,0.006,1.016
05:01.9,0,0.023,0.007,1.016
05:02.1,0,0.023,0.007,1.016
05:02.3,0,0.023,0.007,1.017
05:02.5,0,0.023,0.006,1.017
05:02.7,0,0.023,0.007,1.017
05:02.9,1,0.023,0.006,1.017
05:03.1,1,0.023,0.007,1.018
05:03.3,1,0.022,0.006,1.017
05:03.5,1,0.023,0.007,1.016
05:03.7,1,0.023,0.006,1.016
05:03.9,0,0.023,0.006,1.016
05:04.1,0,0.023,0.006,1.016
05:04.3,0,0.023,0.006,1.016
05:04.5,0,0.023,0.007,1.017
05:04.7,0,0.022,0.006,1.017
05:04.9,0,0.023,0.006,1.017
05:05.1,0,0.023,0.007,1.017
05:05.3,0,0.022,0.007,1.017
05:05.5,0,0.023,0.007,1.016
05:05.7,0,0.023,0.007,1.016
05:05.9,0,0.023,0.006,1.017
05:06.1,0,0.023,0.007,1.016
05:06.3,0,0.023,0.007,1.016
05:06.5,0,0.023,0.006,1.016
05:06.7,0,0.023,0.007,1.017
05:06.9,0,0.023,0.007,1.016
05:07.1,0,0.023,0.007,1.016
05:07.3,0,0.023,0.007,1.016
05:07.5,0,0.023,0.007,1.017
05:07.7,0,0.023,0.007,1.016
05:08.0,0,0.023,0.006,1.016
05:08.2,0,0.023,0.006,1.017
05:08.4,0,0.023,0.007,1.017
05:08.6,0,0.023,0.007,1.017
05:08.8,0,0.023,0.007,1.017
05:09.0,0,0.023,0.007,1.017
05:09.2,0,0.023,0.007,1.017
05:09.4,0,0.022,0.007,1.017
05:09.6,0,0.022,0.007,1.017
05:09.8,0,0.022,0.007,1.017
05:10.0,0,0.022,0.006,1.017
05:10.2,0,0.022,0.006,1.017
05:10.4,0,0.023,0.007,1.017
05:10.6,0,0.023,0.007,1.016
05:10.8,0,0.023,0.007,1.016
05:11.0,0,0.023,0.007,1.017
05:11.2,0,0.023,0.006,1.016
05:11.4,0,0.023,0.006,1.017
05:11.6,0,0.023,0.006,1.018
05:11.8,0,0.023,0.006,1.018
05:12.0,0,0.022,0.006,1.017
05:12.2,0,0.022,0.007,1.017
05:12.4,0,0.023,0.007,1.016
05:12.6,0,0.023,0.007,1.015
05:12.8,0,0.023,0.007,1.015
05:13.0,0,0.023,0.006,1.015
05:13.2,0,0.023,0.006,1.015
05:13.4,0,0.023,0.006,1.016
05:13.6,0,0.023,0.006,1.016
05:13.8,0,0.022,0.006,1.017
05:14.0,0,0.022,0.007,1.017
05:14.2,0,0.022,0.006,1.017
05:14.4,0,0.022,0.006,1.016
05:14.7,0,22,0.006,1.016
05:14.9,0,0.023,0.007,1.016
05:15.1,0,0.023,0.006,1.015
05:15.3,0,0.023,0.007,1.015
05:15.5,0,0.022,0.006,1.016
05:15.7,0,0.022,0.006,1.016
05:15.9,0,0.022,0.006,1.016
05:16.1,0,0.022,0.006,1.016
05:16.3,0,0.022,0.007,1.016
05:16.5,0,0.023,0.007,1.016
05:16.7,0,0.022,0.007,1.016
05:16.9,0,0.023,0.007,1.016
05:17.1,0,0.023,0.007,1.017
05:17.3,0,0.023,0.007,1.017
05:17.5,0,0.023,0.007,1.017
05:17.7,0,0.023,0.007,1.017
05:17.9,0,0.023,0.006,1.017
05:18.1,0,0.023,0.006,1.017
05:18.3,0,0.023,0.006,1.016
05:18.5,0,0.023,0.006,1.017
05:18.7,0,0.023,0.007,1.017
05:18.9,0,0.023,0.007,1.017
05:19.1,0,0.023,0.007,1.017
05:19.3,0,0.023,0.007,1.017
05:19.5,0,0.023,0.007,1.016
05:19.7,0,0.023,0.007,1.016
05:19.9,0,0.023,0.006,1.016
05:20.1,0,0.023,0.006,1.016
05:20.4,0,0.023,0.007,1.017
05:20.6,0,0.023,0.006,1.016
05:20.8,0,0.023,0.006,1.016
05:21.0,0,0.023,0.007,1.017
05:21.2,0,0.023,0.006,1.017
05:21.4,0,0.022,0.006,1.017
05:21.6,0,0.022,0.007,1.017
05:21.8,0,0.022,0.007,1.017
05:22.0,0,0.022,0.006,1.016
05:22.2,0,0.022,0.006,1.017
05:22.4,0,0.022,0.007,1.017
05:22.6,0,0.022,0.006,1.017
05:22.8,0,0.023,0.006,1.016
05:23.0,0,0.023,0.006,1.017
05:23.2,0,0.023,0.007,1.016
05:23.4,0,0.023,0.006,1.015
05:23.6,0,0.023,0.007,1.015
05:23.8,0,0.022,0.007,1.016
05:24.0,0,0.022,0.006,1.016
05:24.2,1,0.023,0.006,1.016
05:24.4,1,0.023,0.007,1.016
05:24.6,1,0.023,0.006,1.016
05:24.8,1,0.023,0.006,1.016
05:25.0,1,0.023,0.007,1.015
05:25.2,1,0.022,0.006,1.015
05:25.4,0,0.022,0.007,1.015
05:25.6,0,0.022,0.007,1.015
05:25.8,0,0.023,0.007,1.014
05:26.0,0,0.022,0.007,1.016
05:26.2,0,0.023,0.007,1.016
05:26.4,0,0.022,0.006,1.017
05:26.6,0,0.023,0.006,1.016
05:26.8,0,0.022,0.006,1.017
05:27.0,0,0.023,0.007,1.017
05:27.2,0,0.023,0.006,1.017
05:27.5,0,0.023,0.006,1.016
05:27.7,0,0.023,0.006,1.017
05:27.9,0,0.023,0.006,1.017
05:28.1,0,0.023,0.006,1.016
05:28.3,0,0.023,0.007,1.016
05:28.5,0,0.023,0.007,1.016
05:28.7,0,0.023,0.007,1.016
05:28.9,0,0.022,0.007,1.016
05:29.1,1,0.022,0.007,1.017
05:29.3,1,0.022,0.007,1.017
05:29.5,1,0.022,0.006,1.017
05:29.7,1,0.022,0.007,1.018
05:29.9,1,0.022,0.007,1.018
05:30.1,1,0.022,0.007,1.018
05:30.3,0,0.022,0.007,1.017
05:30.5,0,0.023,0.007,1.016
05:30.7,0,0.023,0.008,1.016
05:30.9,0,0.023,0.007,1.015
05:31.1,0,0.023,0.007,1.015
05:31.3,0,0.023,0.007,1.016
05:31.5,0,0.023,0.006,1.016
05:31.7,0,0.023,0.006,1.016
05:31.9,0,0.022,0.007,1.017
05:32.1,0,0.022,0.006,1.016
05:32.3,0,0.022,0.007,1.016
05:32.5,0,0.022,0.007,1.017
05:32.7,0,0.023,0.008,1.016
05:32.9,0,0.023,0.007,1.015
05:33.1,0,0.023,0.007,1.016
05:33.3,0,0.023,0.007,1.016
05:33.5,0,0.023,0.007,1.015
05:33.7,1,0.023,0.007,1.016
05:33.9,1,0.023,0.007,1.017
05:34.2,1,0.023,0.007,1.017
05:34.4,1,0.023,0.006,1.016
05:34.6,1,0.023,0.006,1.016
05:34.8,0,0.022,0.007,1.016
05:35.0,0,0.022,0.006,1.016
05:35.2,0,0.023,0.007,1.016
05:35.4,0,0.023,0.007,1.017
05:35.6,0,0.023,0.007,1.016
05:35.8,0,0.023,0.007,1.016
05:36.0,0,0.023,0.007,1.017
05:36.2,0,0.023,0.007,1.017
05:36.4,0,0.023,0.007,1.016
05:36.6,0,0.023,0.007,1.017
05:36.8,0,0.023,0.007,1.017
05:37.0,0,0.023,0.007,1.017
05:37.2,0,0.023,0.007,1.017
05:37.4,0,0.023,0.007,1.017
05:37.6,0,0.023,0.007,1.017
05:37.8,0,0.023,0.007,1.017
05:38.0,0,0.023,0.007,1.017
05:38.2,0,0.022,0.007,1.016
05:38.4,0,0.022,0.007,1.016
05:38.6,0,0.022,0.007,1.016
05:38.8,0,0.022,0.007,1.016
05:39.0,0,0.022,0.006,1.016
05:39.2,0,0.022,0.006,1.016
05:39.4,0,0.022,0.007,1.016
05:39.6,0,0.022,0.007,1.017
05:39.8,0,0.022,0.006,1.016
05:40.0,0,0.023,0.007,1.015
05:40.2,0,0.023,0.007,1.016
05:40.5,0,0.023,0.007,1.016
05:40.7,0,0.023,0.007,1.015
05:40.9,0,0.023,0.008,1.016
05:41.1,1,0.023,0.007,1.017
05:41.3,1,0.023,0.007,1.017
05:41.5,1,0.023,0.008,1.018
05:41.7,1,0.023,0.007,1.019
05:41.9,1,0.023,0.007,1.019
05:42.1,1,0.023,0.007,1.019
05:42.3,0,0.023,0.007,1.019
05:42.5,0,0.023,0.007,1.018
05:42.7,0,0.023,0.007,1.018
05:42.9,0,0.023,0.007,1.017
05:43.1,0,0.022,0.007,1.018
05:43.3,0,0.023,0.007,1.016
05:43.5,0,0.023,0.006,1.017
05:43.7,0,0.023,0.007,1.016
05:43.9,0,0.023,0.006,1.015
05:44.1,0,0.022,0.006,1.016
05:44.3,0,0.022,0.007,1.017
05:44.5,0,0.022,0.007,1.016
05:44.7,0,0.022,0.007,1.016
05:44.9,0,0.023,0.007,1.016
05:45.1,0,0.023,0.007,1.016
05:45.3,0,0.023,0.007,1.016
05:45.5,1,0.023,0.007,1.016
05:45.7,1,0.023,0.007,1.015
05:45.9,1,0.023,0.007,1.016
05:46.1,1,0.023,0.007,1.015
05:46.3,1,0.023,0.007,1.015
05:46.5,1,0.023,0.007,1.015
05:46.7,0,0.022,0.007,1.016
05:46.9,0,0.022,0.007,1.017
05:47.2,0,0.023,0.008,1.017
05:47.4,0,0.023,0.007,1.017
05:47.6,0,0.023,0.007,1.017
05:47.8,0,0.023,0.008,1.017
05:48.0,0,0.023,0.007,1.016
05:48.2,0,0.022,0.007,1.016
05:48.4,0,0.022,0.007,1.016
05:48.6,0,0.022,0.007,1.016
05:48.8,0,0.023,0.007,1.016
05:49.0,0,0.023,0.007,1.016
05:49.2,0,0.022,0.007,1.016
05:49.4,0,0.023,0.007,1.017
05:49.6,0,0.023,0.007,1.017
05:49.8,0,0.023,0.006,1.017
05:50.0,0,0.023,0.007,1.017
05:50.2,0,0.023,0.007,1.017
05:50.4,0,0.023,0.007,1.016
05:50.6,0,0.023,0.007,1.016
05:50.8,0,0.023,0.007,1.016
05:51.0,0,0.023,0.007,1.017
05:51.2,0,0.023,0.006,1.016
05:51.4,0,0.023,0.006,1.016
05:51.6,0,0.023,0.007,1.016
05:51.8,0,0.023,0.006,1.016
05:52.0,0,0.023,0.006,1.016
05:52.2,0,0.022,0.007,1.016
05:52.4,0,0.022,0.006,1.017
05:52.6,0,0.022,0.006,1.017
05:52.8,0,0.022,0.007,1.017
05:53.0,0,0.022,0.006,1.018
05:53.2,0,0.022,0.006,1.017
05:53.4,0,0.022,0.007,1.017
05:53.6,0,0.022,0.007,1.017
05:53.8,0,0.022,0.007,1.016
05:54.0,0,0.022,0.007,1.016
05:54.2,0,0.023,0.007,1.016
05:54.4,0,0.022,0.006,1.016
05:54.7,0,0.022,0.006,1.016
05:54.9,0,0.022,0.006,1.016
05:55.1,0,0.022,0.006,1.016
05:55.3,0,0.022,0.006,1.016
05:55.5,0,0.023,0.006,1.016
05:55.7,0,0.023,0.007,1.016
05:55.9,0,0.023,0.007,1.016
05:56.1,0,0.023,0.007,1.016
05:56.3,0,0.023,0.007,1.016
05:56.5,0,0.022,0.007,1.016
05:56.7,0,0.023,0.007,1.016
05:56.9,0,0.023,0.006,1.016
05:57.1,0,0.023,0.006,1.016
05:57.3,0,0.023,0.006,1.016
05:57.5,0,0.023,0.006,1.015
05:57.7,0,0.023,0.006,1.016
05:57.9,0,0.023,0.006,1.016
05:58.1,0,0.023,0.006,1.016
05:58.3,0,0.023,0.007,1.016
05:58.5,0,0.023,0.007,1.017
05:58.7,0,0.023,0.007,1.016
05:58.9,0,0.023,0.007,1.016
05:59.1,0,0.023,0.007,1.016
05:59.3,0,0.023,0.007,1.015
05:59.5,0,0.023,0.007,1.015
05:59.7,0,0.023,0.007,1.015
05:59.9,0,0.022,0.006,1.015
06:00.1,0,0.022,0.007,1.015
06:00.3,0,0.022,0.006,1.015
06:00.5,0,0.023,0.007,1.016
06:00.7,0,0.023,0.006,1.015
06:00.9,0,0.022,0.006,1.016
06:01.1,0,0.022,0.007,1.016
06:01.3,0,0.022,0.007,1.016
06:01.5,0,0.022,0.007,1.016
06:01.7,0,0.022,0.007,1.017
06:02.0,0,0.022,0.007,1.016
06:02.2,0,0.023,0.007,1.016
06:02.4,0,0.022,0.007,1.017
06:02.6,0,0.023,0.007,1.016
06:02.8,0,0.023,0.007,1.016
06:03.0,0,0.023,0.007,1.016
06:03.2,0,0.023,0.007,1.016
06:03.4,0,0.023,0.007,1.016
06:03.6,0,0.023,0.007,1.016
06:03.8,0,0.023,0.007,1.016
06:04.0,0,0.023,0.007,1.016
06:04.2,0,0.023,0.006,1.015
06:04.4,0,0.02,0.004,1.025
06:04.6,1,0.02,0.005,1.025
06:04.8,1,0.021,0.005,1.024
06:05.0,1,0.021,0.004,1.023
06:05.2,1,0.021,0.005,1.024
06:05.4,1,0.024,0.008,1.014
06:05.6,0,0.023,0.007,1.014
06:05.8,0,0.022,0.007,1.015
06:06.0,0,0.022,0.007,1.017
06:06.2,0,0.022,0.007,1.016
06:06.4,0,0.022,0.007,1.016
06:06.6,0,0.022,0.007,1.016
06:06.8,0,0.022,0.007,1.016
06:07.0,0,0.023,0.007,1.016
06:07.2,0,0.023,0.007,1.016
06:07.4,0,0.023,0.007,1.015
06:07.6,0,0.022,0.007,1.016
06:07.8,0,0.022,0.007,1.016
06:08.0,0,0.022,0.007,1.016
06:08.2,0,0.022,0.007,1.016
06:08.4,0,0.022,0.007,1.017
06:08.6,0,0.022,0.007,1.017
06:08.8,0,0.022,0.007,1.016
06:09.1,0,0.022,0.006,1.016
06:09.2,0,0.022,0.006,1.016
06:09.5,1,0.023,0.006,1.016
06:09.7,1,0.022,0.004,1.008
06:09.9,1,0.023,0.005,1.008
06:10.1,1,0.023,0.006,1.011
06:10.3,1,0.023,0.005,1.01
06:10.5,1,0.023,0.005,1.009
06:10.7,0,0.023,0.008,1.017
06:10.9,0,0.022,0.007,1.017
06:11.1,0,0.023,0.006,1.015
06:11.3,0,0.023,0.008,1.015
06:11.5,0,0.023,0.008,1.017
06:11.7,0,0.023,0.008,1.016
06:11.9,0,0.023,0.008,1.016
06:12.1,0,0.023,0.007,1.016
06:12.3,0,0.022,0.006,1.017
06:12.5,0,0.022,0.006,1.016
06:12.7,0,0.022,0.006,1.016
06:12.9,0,0.022,0.006,1.017
06:13.1,0,0.022,0.006,1.016
06:13.3,0,0.022,0.006,1.016
06:13.5,0,0.022,0.006,1.016
06:13.7,0,0.022,0.006,1.016
06:13.9,0,0.022,0.006,1.015
06:14.1,0,0.022,0.006,1.015
06:14.3,0,0.022,0.006,1.015
06:14.5,1,0.022,0.006,1.016
06:14.7,1,0.022,0.006,1.017
06:14.9,1,0.022,0.006,1.016
06:15.1,1,0.022,0.006,1.016
06:15.3,1,0.022,0.006,1.016
06:15.5,1,0.022,0.006,1.016
06:15.7,0,0.023,0.006,1.016
06:15.9,0,0.023,0.006,1.016
06:16.1,0,0.023,0.006,1.016
06:16.3,0,0.023,0.006,1.016
06:16.6,0,0.023,0.005,1.016
06:16.8,0,0.023,0.006,1.016
06:17.0,0,0.023,0.006,1.016
06:17.2,0,0.023,0.006,1.017
06:17.4,0,0.023,0.006,1.017
06:17.6,0,0.023,0.006,1.016
06:17.8,0,0.023,0.006,1.016
06:18.0,0,0.023,0.007,1.016
06:18.2,0,0.023,0.006,1.016
06:18.4,0,0.022,0.006,1.016
06:18.6,0,0.022,0.006,1.016
06:18.8,0,0.022,0.007,1.016
06:19.0,0,0.022,0.006,1.016
06:19.2,0,0.023,0.006,1.016
06:19.4,0,0.023,0.007,1.017
06:19.6,0,0.023,0.007,1.017
06:19.8,0,0.023,0.007,1.018
06:20.0,0,0.022,0.007,1.018
06:20.2,0,0.023,0.007,1.018
06:20.4,0,0.023,0.007,1.018
06:20.6,1,0.023,0.006,1.018
06:20.8,1,0.023,0.007,1.018
06:21.0,1,0.023,0.007,1.017
06:21.2,1,0.023,0.007,1.016
06:21.4,1,0.023,0.007,1.017
06:21.6,0,0.023,0.007,1.017
06:21.8,0,0.023,0.006,1.015
06:22.0,0,0.023,0.007,1.015
06:22.2,0,0.023,0.007,1.017
06:22.4,0,0.023,0.007,1.016
06:22.6,0,0.023,0.006,1.016
06:22.8,0,0.023,0.007,1.017
06:23.0,0,0.023,0.006,1.017
06:23.2,0,0.023,0.007,1.016
06:23.5,0,0.023,0.007,1.016
06:23.7,0,0.023,0.007,1.017
06:23.9,0,0.023,0.006,1.016
06:24.1,0,0.023,0.006,1.016
06:24.3,0,0.022,0.006,1.017
06:24.5,0,0.022,0.006,1.016
06:24.7,0,0.022,0.006,1.016
06:24.9,0,0.022,0.006,1.016
06:25.1,0,0.022,0.007,1.017
06:25.3,1,0.022,0.006,1.016
06:25.5,1,0.022,0.006,1.016
06:25.7,1,0.023,0.006,1.017
06:25.9,1,0.023,0.006,1.016
06:26.1,1,0.023,0.006,1.016
06:26.3,1,0.023,0.007,1.016
06:26.5,0,0.023,0.007,1.017
06:26.7,0,0.023,0.007,1.016
06:26.9,0,0.023,0.007,1.016
06:27.1,0,0.023,0.007,1.016
06:27.3,0,0.023,0.007,1.016
06:27.5,0,0.023,0.007,1.016
06:27.7,0,0.023,0.006,1.016
06:27.9,0,0.023,0.006,1.015
06:28.1,0,0.023,0.006,1.015
06:28.3,0,0.023,0.006,1.016
06:28.5,0,0.023,0.006,1.015
06:28.7,0,0.023,0.006,1.016
06:28.9,0,0.023,0.007,1.016
06:29.1,0,0.023,0.007,1.016
06:29.3,0,0.023,0.006,1.015
06:29.5,0,0.023,0.007,1.015
06:29.7,0,0.023,0.007,1.016
06:29.9,0,0.023,0.007,1.015
06:30.1,1,0.023,0.006,1.015
06:30.3,1,0.023,0.007,1.015
06:30.5,1,0.023,0.007,1.015
06:30.8,1,0.022,0.006,1.015
06:31.0,1,0.022,0.006,1.016
06:31.2,0,0.023,0.007,1.016
06:31.4,0,0.023,0.007,1.016
06:31.6,0,0.022,0.007,1.016
06:31.8,0,0.023,0.007,1.017
06:32.0,0,0.022,0.007,1.017
06:32.2,0,0.023,0.007,1.017
06:32.4,0,0.023,0.007,1.017
06:32.6,0,0.023,0.006,1.017
06:32.8,0,0.023,0.006,1.017
06:33.0,0,0.023,0.007,1.017
06:33.2,0,0.023,0.007,1.016
06:33.4,0,0.023,0.007,1.016
06:33.6,0,0.023,0.007,1.016
06:33.8,0,0.023,0.007,1.016
06:34.0,0,0.023,0.007,1.015
06:34.2,0,0.023,0.007,1.016
06:34.4,0,0.023,0.007,1.016
06:34.6,0,0.023,0.007,1.017
06:34.8,0,0.023,0.007,1.017
06:35.0,0,0.023,0.007,1.016
06:35.2,0,0.022,0.006,1.016
06:35.4,0,0.023,0.007,1.016
06:35.6,0,0.022,0.007,1.016
06:35.8,0,0.022,0.006,1.016
06:36.0,1,0.022,0.007,1.017
06:36.2,1,0.023,0.007,1.017
06:36.4,1,0.022,0.006,1.016
06:36.6,1,0.023,0.007,1.017
06:36.8,1,0.023,0.008,1.017
06:37.0,1,0.023,0.007,1.016
06:37.2,0,0.023,0.007,1.016
06:37.4,0,0.023,0.007,1.017
06:37.6,0,0.023,0.007,1.016
06:37.8,0,0.023,0.007,1.016
06:38.1,0,0.023,0.007,1.016
06:38.3,0,0.023,0.007,1.016
06:38.5,0,0.023,0.007,1.016
06:38.7,0,0.023,0.007,1.016
06:38.9,0,0.023,0.007,1.016
06:39.1,0,0.023,0.006,1.016
06:39.3,0,0.023,0.006,1.016
06:39.5,0,0.023,0.007,1.016
06:39.7,0,0.023,0.007,1.016
06:39.9,0,0.023,0.007,1.016
06:40.1,0,0.023,0.007,1.017
06:40.3,0,0.023,0.007,1.017
06:40.5,0,0.023,0.007,1.016
06:40.7,0,0.023,0.007,1.017
06:40.9,0,0.023,0.006,1.017
06:41.1,0,0.022,0.006,1.017
06:41.3,0,0.023,0.007,1.017
06:41.5,0,0.023,0.007,1.016
06:41.7,1,0.023,0.006,1.016
06:41.9,1,0.023,0.007,1.016
06:42.1,1,0.023,0.007,1.016
06:42.3,1,0.023,0.006,1.016
06:42.5,1,0.023,0.007,1.017
06:42.7,1,0.022,0.006,1.016
06:42.9,0,0.023,0.006,1.017
06:43.1,0,0.023,0.007,1.018
06:43.3,0,0.023,0.006,1.018
06:43.5,0,0.023,0.006,1.017
06:43.7,0,0.023,0.006,1.018
06:43.9,0,0.022,0.006,1.018
06:44.1,0,0.022,0.005,1.017
06:44.3,0,0.022,0.006,1.017
06:44.5,0,0.022,0.006,1.017
06:44.8,0,0.023,0.007,1.016
06:45.0,0,0.023,0.007,1.016
06:45.2,0,0.023,0.008,1.016
06:45.4,0,0.023,0.008,1.017
06:45.6,0,0.023,0.008,1.017
06:45.8,0,0.023,0.008,1.018
06:46.0,0,0.023,0.007,1.017
06:46.2,0,0.023,0.007,1.017
06:46.4,0,0.023,0.007,1.017
06:46.6,0,0.023,0.007,1.017
06:46.8,0,0.023,0.007,1.016
06:47.0,0,0.023,0.007,1.017
06:47.2,0,0.023,0.007,1.016
06:47.4,0,0.023,0.008,1.015
06:47.6,0,0.023,0.007,1.015
06:47.8,0,0.023,0.007,1.016
06:48.0,0,0.023,0.008,1.015
06:48.2,0,0.023,0.006,1.014
06:48.4,0,0.022,0.005,1.016
06:48.6,0,0.023,0.006,1.016
06:48.8,1,0.022,0.005,1.014
06:49.0,1,0.022,0.004,1.015
06:49.2,1,0.022,0.005,1.015
06:49.4,1,0.023,0.006,1.015
06:49.6,1,0.022,0.006,1.015
06:49.8,0,0.023,0.007,1.016
06:50.0,0,0.023,0.007,1.016
06:50.2,0,0.023,0.007,1.016
06:50.4,0,0.023,0.007,1.016
06:50.6,0,0.023,0.007,1.016
06:50.8,0,0.023,0.007,1.016
06:51.0,0,0.023,0.007,1.016
06:51.2,0,0.023,0.007,1.016
06:51.4,0,0.023,0.007,1.016
06:51.6,0,0.023,0.007,1.016
06:51.8,0,0.023,0.007,1.016
06:52.1,0,0.023,0.007,1.017
06:52.3,0,0.023,0.007,1.017
06:52.5,0,0.023,0.007,1.017
06:52.7,0,0.023,0.008,1.018
06:52.9,0,0.023,0.007,1.019
06:53.1,0,0.023,0.006,1.017
06:53.3,0,0.023,0.007,1.017
06:53.5,0,0.022,0.007,1.017
06:53.7,0,0.022,0.006,1.016
06:53.9,0,0.023,0.007,1.015
06:54.1,0,0.022,0.007,1.015
06:54.3,0,0.022,0.006,1.015
06:54.5,0,0.022,0.007,1.015
06:54.7,0,0.022,0.007,1.015
06:54.9,0,0.023,0.007,1.016
06:55.1,0,0.023,0.008,1.017
06:55.3,0,0.023,0.009,1.018
06:55.5,0,0.023,0.008,1.018
06:55.7,0,0.024,0.009,1.018
06:55.9,0,0.023,0.008,1.018
06:56.1,0,0.023,0.007,1.018
06:56.3,0,0.023,0.007,1.016
06:56.5,0,0.023,0.006,1.016
06:56.7,0,0.023,0.006,1.015
06:56.9,0,0.023,0.007,1.017
06:57.1,0,0.022,0.006,1.016
06:57.3,0,0.023,0.007,1.016
06:57.5,0,0.022,0.007,1.017
06:57.7,0,0.022,0.007,1.017
06:57.9,0,0.022,0.006,1.017
06:58.1,0,0.023,0.007,1.016
06:58.3,0,0.023,0.007,1.016
06:58.5,0,0.023,0.006,1.017
06:58.7,0,0.023,0.006,1.016
06:58.9,0,0.023,0.007,1.016
06:59.1,0,0.023,0.007,1.017
06:59.3,0,0.023,0.007,1.016
06:59.5,0,0.023,0.006,1.016
06:59.8,0,0.023,0.007,1.016
07:00.0,0,0.023,0.007,1.016
07:00.2,0,0.023,0.007,1.016
07:00.4,0,0.023,0.007,1.016
07:00.6,0,0.023,0.007,1.016
07:00.8,0,0.023,0.007,1.016
07:01.0,0,0.023,0.007,1.015
07:01.2,0,0.023,0.007,1.016
07:01.4,0,0.023,0.007,1.016
07:01.6,0,0.023,0.007,1.016
07:01.8,0,0.023,0.007,1.016
07:02.0,0,0.023,0.006,1.015
07:02.2,0,0.023,0.006,1.015
07:02.4,0,0.023,0.007,1.014
07:02.6,0,0.023,0.007,1.015
07:02.8,0,0.023,0.007,1.014
07:03.0,0,0.023,0.007,1.015
07:03.2,0,0.023,0.007,1.016
07:03.4,0,0.022,0.006,1.016
07:03.6,0,0.022,0.007,1.016
07:03.8,0,0.022,0.007,1.016
07:04.0,0,0.022,0.007,1.016
07:04.2,0,0.022,0.007,1.016
07:04.4,0,0.023,0.007,1.016
07:04.6,0,0.023,0.007,1.016
07:04.8,0,0.023,0.007,1.016
07:05.0,0,0.023,0.007,1.016
07:05.2,0,0.023,0.007,1.016
07:05.4,0,0.023,0.006,1.016
07:05.6,0,0.023,0.006,1.016
07:05.8,0,0.023,0.006,1.015
07:06.0,0,0.023,0.006,1.016
07:06.2,0,0.023,0.007,1.016
07:06.4,0,0.023,0.007,1.015
07:06.7,0,0.023,0.007,1.015
07:06.9,0,0.023,0.007,1.015
07:07.1,0,0.023,0.007,1.015
07:07.3,0,0.025,0.008,1.01
07:07.5,0,0.024,0.006,1.008
07:07.7,1,0.024,0.006,1.01
07:07.9,1,0.024,0.007,1.011
07:08.1,1,0.023,0.005,1.01
07:08.3,1,0.021,0.005,1.015
07:08.5,1,0.021,0.006,1.017
07:08.7,1,0.022,0.006,1.015
07:08.9,0,0.022,0.006,1.014
07:09.1,0,0.022,0.007,1.015
07:09.3,0,0.022,0.006,1.016
07:09.5,0,0.022,0.006,1.016
07:09.7,0,0.022,0.007,1.016
07:09.9,0,0.022,0.007,1.016
07:10.1,0,0.022,0.007,1.016
07:10.3,0,0.023,0.008,1.017
07:10.5,0,0.023,0.008,1.017
07:10.7,0,0.023,0.008,1.017
07:10.9,0,0.023,0.008,1.017
07:11.1,0,0.023,0.008,1.017
07:11.3,0,0.023,0.008,1.017
07:11.5,0,0.022,0.008,1.017
07:11.7,0,0.023,0.007,1.016
07:11.9,0,0.023,0.007,1.016
07:12.1,0,0.023,0.007,1.016
07:12.3,0,0.023,0.007,1.016
07:12.5,0,0.022,0.007,1.015
07:12.7,0,0.022,0.007,1.015
07:12.9,0,0.022,0.007,1.016
07:13.1,0,0.022,0.007,1.016
07:13.3,0,0.023,0.007,1.016
07:13.6,0,0.023,0.008,1.016
07:13.8,0,0.023,0.008,1.017
07:14.0,0,0.023,0.008,1.017
07:14.2,0,0.023,0.007,1.017
07:14.4,0,0.023,0.008,1.016
07:14.6,0,0.022,0.007,1.017
07:14.8,0,0.023,0.007,1.016
07:15.0,0,0.023,0.007,1.016
07:15.2,0,0.022,0.007,1.016
07:15.4,0,0.023,0.007,1.017
07:15.6,0,0.023,0.006,1.017
07:15.8,0,0.023,0.006,1.016
07:16.0,0,0.023,0.006,1.016
07:16.2,0,0.023,0.007,1.016
07:16.4,0,0.023,0.007,1.016
07:16.6,0,0.023,0.007,1.015
07:16.8,0,0.023,0.007,1.016
07:17.0,0,0.023,0.007,1.016
07:17.2,0,0.022,0.007,1.016
07:17.4,0,0.022,0.007,1.016
07:17.6,0,0.022,0.007,1.016
07:17.8,0,0.022,0.007,1.016
07:18.0,0,0.022,0.007,1.016
07:18.2,0,0.022,0.007,1.016
07:18.4,0,0.022,0.007,1.016
07:18.6,0,0.022,0.007,1.016
07:18.8,0,0.022,0.007,1.016
07:19.0,0,0.022,0.007,1.017
07:19.2,0,0.022,0.007,1.017
07:19.4,0,0.022,0.007,1.016
07:19.6,0,0.022,0.007,1.016
07:19.8,0,0.022,0.007,1.016
07:20.0,0,0.022,0.007,1.015
07:20.2,0,0.022,0.007,1.015
07:20.4,0,0.022,0.007,1.015
07:20.6,0,0.023,0.007,1.016
07:20.8,0,0.023,0.007,1.016
07:21.1,0,0.023,0.007,1.016
07:21.3,0,0.023,0.007,1.017
07:21.5,0,0.023,0.007,1.017
07:21.7,0,0.023,0.006,1.017
07:21.9,0,0.023,0.007,1.016
07:22.1,0,0.022,0.007,1.016
07:22.3,0,0.022,0.007,1.016
07:22.5,0,0.023,0.007,1.016
07:22.7,0,0.023,0.007,1.017
07:22.9,0,0.023,0.007,1.016
07:23.1,0,0.023,0.007,1.016
07:23.3,0,0.023,0.007,1.016
07:23.5,0,0.023,0.007,1.015
07:23.7,0,0.023,0.007,1.015
07:23.9,0,0.023,0.007,1.016
07:24.1,0,0.023,0.007,1.016
07:24.3,1,0.023,0.007,1.016
07:24.5,1,0.023,0.007,1.016
07:24.7,1,0.023,0.007,1.016
07:24.9,1,0.022,0.006,1.017
07:25.1,1,0.023,0.006,1.016
07:25.3,1,0.022,0.006,1.017
07:25.5,0,0.022,0.006,1.017
07:25.7,0,0.022,0.006,1.017
07:25.9,0,0.023,0.007,1.016
07:26.1,0,0.022,0.007,1.017
07:26.3,0,0.023,0.007,1.017
07:26.5,0,0.023,0.007,1.016
07:26.7,0,0.022,0.006,1.016
07:26.9,0,0.022,0.006,1.017
07:27.1,0,0.023,0.006,1.016
07:27.3,0,0.023,0.007,1.016
07:27.5,0,0.023,0.007,1.016
07:27.7,0,0.023,0.007,1.016
07:27.9,0,0.023,0.008,1.016
07:28.1,0,0.023,0.007,1.016
07:28.4,0,0.023,0.007,1.016
07:28.6,0,0.023,0.008,1.016
07:28.8,0,0.023,0.007,1.016
07:29.0,0,0.023,0.007,1.016
07:29.2,1,0.023,0.008,1.017
07:29.4,1,0.023,0.008,1.016
07:29.6,1,0.023,0.008,1.016
07:29.8,1,0.023,0.008,1.017
07:30.0,1,0.023,0.008,1.016
07:30.2,1,0.023,0.007,1.016
07:30.4,0,0.023,0.007,1.016
07:30.6,0,0.022,0.007,1.016
07:30.8,0,0.023,0.007,1.016
07:31.0,0,0.023,0.008,1.016
07:31.2,0,0.023,0.008,1.016
07:31.4,0,0.023,0.007,1.016
07:31.6,0,0.023,0.007,1.016
07:31.8,0,0.023,0.007,1.016
07:32.0,0,0.023,0.007,1.016
07:32.2,0,0.023,0.007,1.016
07:32.4,0,0.023,0.008,1.016
07:32.6,0,0.024,0.007,1.016
07:32.8,0,0.023,0.007,1.016
07:33.0,0,0.023,0.007,1.016
07:33.2,0,0.023,0.007,1.016
07:33.4,0,0.023,0.006,1.015
07:33.6,0,0.023,0.007,1.015
07:33.8,0,0.023,0.007,1.015
07:34.0,0,0.023,0.007,1.015
07:34.2,0,0.023,0.006,1.014
07:34.4,1,0.023,0.007,1.014
07:34.6,1,0.023,0.006,1.014
07:34.9,1,0.023,0.006,1.014
07:35.1,1,0.023,0.006,1.015
07:35.3,1,0.023,0.007,1.016
07:35.5,0,0.022,0.006,1.016
07:35.7,0,0.023,0.007,1.017
07:35.9,0,0.023,0.007,1.017
07:36.1,0,0.023,0.007,1.017
07:36.3,0,0.023,0.007,1.016
07:36.5,0,0.023,0.007,1.016
07:36.7,0,0.023,0.007,1.016
07:36.9,0,0.023,0.007,1.015
07:37.1,0,0.023,0.007,1.016
07:37.3,0,0.023,0.007,1.016
07:37.5,0,0.023,0.007,1.015
07:37.7,0,0.023,0.007,1.016
07:37.9,0,0.022,0.007,1.015
07:38.1,0,0.023,0.007,1.015
07:38.3,0,0.023,0.007,1.015
07:38.5,0,0.023,0.006,1.015
07:38.7,0,0.023,0.007,1.016
07:38.9,1,0.023,0.007,1.016
07:39.1,1,0.023,0.007,1.015
07:39.3,1,0.023,0.007,1.016
07:39.5,1,0.023,0.007,1.016
07:39.7,1,0.023,0.007,1.015
07:39.9,1,0.023,0.007,1.016
07:40.1,0,0.023,0.007,1.017
07:40.3,0,0.023,0.007,1.017
07:40.5,0,0.023,0.007,1.017
07:40.7,0,0.023,0.007,1.017
07:40.9,0,0.023,0.007,1.017
07:41.1,0,0.023,0.006,1.017
07:41.4,0,0.023,0.006,1.017
07:41.6,0,0.023,0.006,1.017
07:41.8,0,0.023,0.006,1.017
07:42.0,0,0.023,0.006,1.016
07:42.2,0,0.023,0.007,1.016
07:42.4,0,0.023,0.007,1.017
07:42.6,0,0.023,0.007,1.016
07:42.8,0,0.023,0.006,1.016
07:43.0,0,0.023,0.006,1.016
07:43.2,0,0.024,0.006,1.015
07:43.4,0,0.023,0.007,1.016
07:43.6,0,0.023,0.006,1.016
07:43.8,0,0.023,0.006,1.017
07:44.0,0,0.023,0.007,1.016
07:44.2,0,0.022,0.006,1.017
07:44.4,0,0.022,0.006,1.017
07:44.6,0,0.023,0.007,1.017
07:44.8,0,0.023,0.007,1.017
07:45.0,0,0.023,0.007,1.017
07:45.2,0,0.023,0.007,1.017
07:45.4,0,0.023,0.007,1.017
07:45.6,0,0.022,0.006,1.016
07:45.8,1,0.022,0.005,1.016
07:46.0,1,0.023,0.006,1.015
07:46.2,1,0.023,0.006,1.016
07:46.4,1,0.023,0.006,1.015
07:46.6,1,0.024,0.007,1.016
07:46.8,0,0.024,0.007,1.017
07:47.0,0,0.023,0.007,1.016
07:47.2,0,0.023,0.007,1.015
07:47.4,0,0.023,0.007,1.017
07:47.6,0,0.023,0.007,1.016
07:47.8,0,0.022,0.007,1.018
07:48.0,0,0.022,0.008,1.02
07:48.3,0,0.022,0.007,1.02
07:48.5,0,0.022,0.008,1.019
07:48.7,0,0.022,0.008,1.02
07:48.9,0,0.022,0.007,1.018
07:49.1,0,0.022,0.007,1.017
07:49.3,0,0.023,0.007,1.017
07:49.5,0,0.023,0.007,1.017
07:49.7,0,0.023,0.007,1.017
07:49.9,0,0.023,0.007,1.016
07:50.1,0,0.023,0.007,1.016
07:50.3,0,0.023,0.007,1.016
07:50.5,0,0.023,0.007,1.016
07:50.7,0,0.023,0.007,1.016
07:50.9,0,0.022,0.007,1.016
07:51.1,0,0.022,0.007,1.016
07:51.3,0,0.022,0.007,1.016
07:51.5,0,0.022,0.007,1.016
07:51.7,0,0.022,0.007,1.017
07:51.9,0,0.023,0.007,1.016
07:52.1,0,0.023,0.007,1.017
07:52.3,0,0.023,0.007,1.017
07:52.5,0,0.023,0.007,1.017
07:52.7,0,0.023,0.007,1.016
07:52.9,0,0.023,0.007,1.016
07:53.1,0,0.023,0.007,1.016
07:53.3,0,0.023,0.007,1.016
07:53.5,0,0.022,0.007,1.016
07:53.7,0,0.022,0.007,1.016
07:53.9,0,0.022,0.007,1.016
07:54.1,0,0.022,0.007,1.016
07:54.3,0,0.022,0.007,1.017
07:54.5,0,0.022,0.007,1.016
07:54.7,0,0.022,0.007,1.016
07:54.9,0,0.022,0.007,1.016
07:55.1,0,0.022,0.007,1.016
07:55.4,0,0.022,0.007,1.016
07:55.6,0,0.022,0.007,1.016
07:55.8,0,0.022,0.007,1.016
07:56.0,0,0.022,0.007,1.016
07:56.2,0,0.022,0.007,1.016
07:56.4,0,0.022,0.007,1.016
07:56.6,0,0.022,0.007,1.016
07:56.8,0,0.022,0.007,1.015
07:57.0,0,0.022,0.007,1.015
07:57.2,0,0.022,0.006,1.016
07:57.4,0,0.022,0.006,1.016
07:57.6,0,0.022,0.007,1.016
07:57.8,0,0.022,0.007,1.016
07:58.0,0,0.022,0.007,1.016
07:58.2,0,0.022,0.007,1.017
07:58.4,0,0.023,0.007,1.016
07:58.6,0,0.022,0.007,1.016
07:58.8,0,0.022,0.007,1.017
07:59.0,0,0.023,0.007,1.017
07:59.2,0,0.023,0.007,1.017
07:59.4,0,0.022,0.007,1.017
07:59.6,0,0.022,0.007,1.017
07:59.8,0,0.022,0.007,1.016
08:00.0,0,0.023,0.007,1.016
08:00.2,0,0.022,0.007,1.016
08:00.4,0,0.023,0.007,1.016
08:00.6,0,0.022,0.007,1.016
08:00.8,0,0.023,0.007,1.016
08:01.0,0,0.022,0.007,1.016
08:01.2,0,0.022,0.007,1.016
08:01.4,0,0.022,0.007,1.016
08:01.6,0,0.022,0.007,1.016
08:01.8,0,0.022,0.007,1.016
08:02.0,0,0.022,0.006,1.016
08:02.2,0,0.022,0.006,1.017
08:02.5,0,0.023,0.007,1.017
08:02.7,0,0.022,0.006,1.017
08:02.9,0,0.022,0.006,1.017
08:03.1,0,0.022,0.007,1.016
08:03.3,0,0.022,0.007,1.016
08:03.5,0,0.022,0.007,1.015
08:03.7,0,0.022,0.007,1.016
08:03.9,0,0.022,0.007,1.016
08:04.1,0,0.022,0.007,1.017
08:04.3,0,0.022,0.007,1.016
08:04.5,0,0.022,0.007,1.015
08:04.7,0,0.022,0.008,1.015
08:04.9,0,0.022,0.007,1.012
08:05.1,0,0.023,0.006,1.011
08:05.3,0,0.023,0.007,1.013
08:05.5,0,0.022,0.007,1.013
08:05.7,0,0.023,0.006,1.014
08:05.9,0,0.023,0.007,1.017
08:06.1,0,0.022,0.007,1.017
08:06.3,0,0.023,0.007,1.015
08:06.5,0,0.022,0.006,1.015
08:06.7,0,0.022,0.006,1.016
08:06.9,0,0.022,0.006,1.015
08:07.1,0,0.023,0.006,1.015
08:07.3,0,0.022,0.006,1.016
08:07.5,0,0.022,0.005,1.015
08:07.7,0,0.022,0.005,1.017
08:07.9,0,0.022,0.006,1.017
08:08.1,0,0.021,0.005,1.017
08:08.3,0,0.021,0.005,1.017
08:08.5,0,0.022,0.007,1.017
08:08.7,0,0.022,0.007,1.015
08:08.9,0,0.022,0.006,1.016
08:09.1,0,0.022,0.007,1.016
08:09.4,0,0.022,0.007,1.016
08:09.6,0,0.023,0.007,1.016
08:09.8,0,0.023,0.007,1.016
08:10.0,0,0.022,0.007,1.016
08:10.2,0,0.022,0.007,1.016
08:10.4,0,0.022,0.007,1.016
08:10.6,0,0.022,0.007,1.016
08:10.8,0,0.022,0.007,1.016
08:11.0,0,0.022,0.007,1.017
08:11.2,0,0.022,0.006,1.015
08:11.4,0,0.022,0.007,1.015
08:11.6,0,0.022,0.006,1.016
08:11.8,0,0.022,0.006,1.016
08:12.0,0,0.022,0.006,1.015
08:12.2,0,0.022,0.006,1.017
08:12.4,0,0.022,0.006,1.017
08:12.6,0,0.022,0.006,1.015
08:12.8,0,0.022,0.006,1.015
08:13.0,0,0.022,0.007,1.016
08:13.2,0,0.023,0.007,1.016
08:13.4,0,0.023,0.007,1.017
08:13.6,0,0.023,0.007,1.018
08:13.8,0,0.023,0.007,1.018
08:14.0,0,0.023,0.007,1.018
08:14.2,0,0.023,0.007,1.018
08:14.4,0,0.023,0.006,1.017
08:14.6,0,0.023,0.007,1.017
08:14.8,0,0.023,0.007,1.016
08:15.0,0,0.023,0.007,1.016
08:15.2,0,0.022,0.006,1.016
08:15.4,0,0.023,0.007,1.016
08:15.6,0,0.022,0.006,1.016
08:15.8,0,0.022,0.006,1.017
08:16.0,0,0.023,0.006,1.016
08:16.2,0,0.023,0.006,1.016
08:16.4,0,0.022,0.006,1.016
08:16.6,0,0.023,0.007,1.015
08:16.8,0,0.023,0.007,1.015
08:17.0,0,0.023,0.007,1.016
08:17.3,0,0.022,0.007,1.016
08:17.5,0,0.023,0.007,1.016
08:17.7,0,0.022,0.007,1.016
08:17.9,0,0.022,0.007,1.017
08:18.1,0,0.022,0.007,1.017
08:18.3,0,0.023,0.007,1.017
08:18.5,0,0.022,0.006,1.017
08:18.7,0,0.022,0.007,1.017
08:18.9,0,0.022,0.007,1.017
08:19.1,0,0.022,0.007,1.017
08:19.3,0,0.022,0.007,1.017
08:19.5,0,0.022,0.007,1.017
08:19.7,0,0.022,0.007,1.016
08:19.9,0,0.022,0.007,1.016
08:20.1,0,0.023,0.007,1.016
08:20.3,0,0.023,0.007,1.016
08:20.5,0,0.023,0.007,1.016
08:20.7,0,0.023,0.007,1.016
08:20.9,0,0.023,0.007,1.016
08:21.1,0,0.023,0.006,1.016
08:21.3,0,0.023,0.006,1.016
08:21.5,0,0.023,0.006,1.016
08:21.7,0,0.023,0.006,1.016
08:21.9,0,0.023,0.006,1.015
08:22.1,0,0.023,0.007,1.014
08:22.3,0,0.023,0.007,1.015
