timestamp,PIR_Motion,Accel_X,Accel_Y,Accel_Z
2026-09-03 15:51:03.918,0,-0.153,-0.102,1.003
2026-09-03 15:51:03.919,0,-0.153,-0.101,1.003
2026-09-03 15:51:03.921,0,-0.153,-0.101,1.002
2026-09-03 15:51:03.923,0,-0.153,-0.102,1.001
2026-09-03 15:51:03.925,0,-0.153,-0.101,1.001
2026-09-03 15:51:03.926,0,-0.153,-0.100,1.002
2026-09-03 15:51:03.926,0,-0.153,-0.101,1.003
2026-09-03 15:51:03.927,0,-0.153,-0.101,1.004
2026-09-03 15:51:03.928,0,-0.153,-0.101,1.003
2026-09-03 15:51:03.928,0,-0.153,-0.101,1.003
2026-09-03 15:51:03.929,0,-0.153,-0.101,1.003
2026-09-03 15:51:03.929,0,-0.153,-0.101,1.003
2026-09-03 15:51:03.930,0,-0.153,-0.101,1.003
2026-09-03 15:51:03.930,0,-0.154,-0.101,1.003
2026-09-03 15:51:03.931,0,-0.54,-0.101,1.003
2026-09-03 15:51:03.934,0,-0.153,-0.101,1.003
2026-09-03 15:51:03.935,0,-0.153,-0.101,1.002
2026-09-03 15:51:03.935,0,-0.153,-0.101,1.002
2026-09-03 15:51:03.936,0,-0.153,-0.101,1.002
2026-09-03 15:51:03.936,0,-0.153,-0.100,1.002
2026-09-03 15:51:04.033,0,-0.153,-0.101,1.003
2026-09-03 15:51:04.136,0,-0.153,-0.101,1.003
2026-09-03 15:51:04.239,0,-0.154,-0.100,1.004
2026-09-03 15:51:04.342,0,-0.153,-0.101,1.003
2026-09-03 15:51:04.445,0,-0.153,-0.101,1.003
2026-09-03 15:51:04.548,0,-0.153,-0.101,1.003
2026-09-03 15:51:04.651,0,-0.153,-0.101,1.003
2026-09-03 15:51:04.753,0,-0.153,-0.101,1.002
2026-09-03 15:51:04.856,0,-0.153,-0.101,1.002
2026-09-03 15:51:04.959,0,-0.154,-0.100,1.003
2026-09-03 15:51:05.061,0,-0.154,-0.101,1.003
2026-09-03 15:51:05.164,0,-0.154,-0.101,1.003
2026-09-03 15:51:05.267,0,-0.154,-0.100,1.004
2026-09-03 15:51:05.370,0,-0.154,-0.101,1.004
2026-09-03 15:51:05.472,0,-0.154,-0.101,1.003
2026-09-03 15:51:05.575,0,-0.154,-0.101,1.002
2026-09-03 15:51:05.678,0,-0.153,-0.101,1.002
2026-09-03 15:51:05.781,0,-0.153,-0.101,1.001
2026-09-03 15:51:05.885,0,-0.153,-0.101,1.002
2026-09-03 15:51:05.987,0,-0.153,-0.101,1.003
2026-09-03 15:51:06.092,0,-0.153,-0.101,1.003
2026-09-03 15:51:06.197,0,-0.154,-0.101,1.004
2026-09-03 15:51:06.299,0,-0.154,-0.101,1.004
2026-09-03 15:51:06.404,0,-0.153,-0.100,1.003
2026-09-03 15:51:06.506,0,-0.153,-0.100,1.003
2026-09-03 15:51:06.610,0,-0.153,-0.101,1.002
2026-09-03 15:51:06.714,0,-0.153,-0.101,1.002
2026-09-03 15:51:06.816,0,-0.153,-0.100,1.002
2026-09-03 15:51:06.920,0,-0.153,-0.101,1.003
2026-09-03 15:51:07.022,0,-0.153,-0.101,1.003
2026-09-03 15:51:07.125,0,-0.153,-0.101,1.003
2026-09-03 15:51:07.228,0,-0.153,-0.101,1.003
2026-09-03 15:51:07.333,0,-0.153,-0.101,1.003
2026-09-03 15:51:07.436,0,-0.153,-0.101,1.003
2026-09-03 15:51:07.540,0,-0.154,-0.101,1.003
2026-09-03 15:51:07.646,0,-0.154,-0.101,1.004
2026-09-03 15:51:07.750,0,-0.154,-0.101,1.004
2026-09-03 15:51:07.852,0,-0.154,-0.101,1.003
2026-09-03 15:51:07.956,0,-0.153,-0.101,1.003
2026-09-03 15:51:08.058,0,-0.153,-0.101,1.003
2026-09-03 15:51:08.161,0,-0.153,-0.101,1.002
2026-09-03 15:51:08.264,0,-0.153,-0.101,1.002
2026-09-03 15:51:08.367,0,-0.153,-0.101,1.002
2026-09-03 15:51:08.470,0,-0.153,-0.101,1.004
2026-09-03 15:51:08.573,0,-0.153,-0.102,1.004
2026-09-03 15:51:08.676,0,-0.154,-0.102,1.007
2026-09-03 15:51:08.780,0,-0.155,-0.102,1.008
2026-09-03 15:51:08.884,0,-0.154,-0.102,1.007
2026-09-03 15:51:08.987,0,-0.153,-0.102,1.004
2026-09-03 15:51:09.091,0,-0.153,-0.101,1.003
2026-09-03 15:51:09.194,0,-0.152,-0.101,1.001
2026-09-03 15:51:09.299,0,-0.152,-0.102,1.000
2026-09-03 15:51:09.402,0,-0.152,-0.101,1.002
2026-09-03 15:51:09.505,0,-0.153,-0.101,1.004
2026-09-03 15:51:09.609,0,-0.153,-0.102,1.005
2026-09-03 15:51:09.713,0,-0.153,-0.101,1.005
2026-09-03 15:51:09.816,0,-0.153,-0.101,1.003
2026-09-03 15:51:09.919,0,-0.153,-0.101,1.003
2026-09-03 15:51:10.025,0,-0.153,-0.101,1.003
2026-09-03 15:51:10.127,0,-0.153,-0.101,1.003
2026-09-03 15:51:10.231,0,-0.153,-0.101,1.003
2026-09-03 15:51:10.333,0,-0.153,-0.101,1.003
2026-09-03 15:51:10.435,0,-0.153,-0.101,1.003
2026-09-03 15:51:10.539,0,-0.153,-0.101,1.003
2026-09-03 15:51:10.642,0,-0.153,-0.101,1.003
2026-09-03 15:51:10.745,0,-0.153,-0.101,1.003
2026-09-03 15:51:10.849,0,-0.153,-0.101,1.003
2026-09-03 15:51:10.952,0,-0.154,-0.101,1.003
2026-09-03 15:51:11.056,0,-0.153,-0.101,1.003
2026-09-03 15:51:11.158,0,-0.153,-0.101,1.003
2026-09-03 15:51:11.261,0,-0.153,-0.101,1.002
2026-09-03 15:51:11.363,0,-0.153,-0.102,1.002
2026-09-03 15:51:11.467,0,-0.153,-0.102,1.002
2026-09-03 15:51:11.570,0,-0.154,-0.101,1.002
2026-09-03 15:51:11.673,0,-0.153,-0.101,1.002
2026-09-03 15:51:11.776,0,-0.154,-0.102,1.002
2026-09-03 15:51:11.880,0,-0.154,-0.101,1.002
2026-09-03 15:51:11.982,0,-0.154,-0.101,1.002
2026-09-03 15:51:12.085,0,-0.153,-0.101,1.001
2026-09-03 15:51:12.188,0,-0.153,-0.101,1.002
2026-09-03 15:51:12.291,0,-0.153,-0.101,1.003
2026-09-03 15:51:12.395,0,-0.153,-0.101,1.003
2026-09-03 15:51:12.499,0,-0.153,-0.101,1.003
2026-09-03 15:51:12.602,0,-0.153,-0.101,1.003
2026-09-03 15:51:12.704,0,-0.153,-0.101,1.003
2026-09-03 15:51:12.807,0,-0.153,-0.101,1.003
2026-09-03 15:51:12.910,0,-0.153,-0.101,1.003
2026-09-03 15:51:13.012,0,-0.153,-0.101,1.003
2026-09-03 15:51:13.114,0,-0.153,-0.101,1.003
2026-09-03 15:51:13.218,0,-0.154,-0.101,1.003
2026-09-03 15:51:13.321,0,-0.154,-0.101,1.005
2026-09-03 15:51:13.423,0,-0.154,-0.101,1.005
2026-09-03 15:51:13.526,0,-0.154,-0.102,1.005
2026-09-03 15:51:13.629,0,-0.154,-0.102,1.005
2026-09-03 15:51:13.732,0,-0.154,-0.101,1.005
2026-09-03 15:51:13.834,0,-0.153,-0.101,1.003
2026-09-03 15:51:13.936,0,-0.153,-0.101,1.003
2026-09-03 15:51:14.040,0,-0.153,-0.101,1.002
2026-09-03 15:51:14.142,0,-0.153,-0.101,1.002
2026-09-03 15:51:14.245,0,-0.153,-0.101,1.002
2026-09-03 15:51:14.347,0,-0.153,-0.101,1.003
2026-09-03 15:51:14.450,0,-0.153,-0.101,1.003
2026-09-03 15:51:14.553,0,-0.153,-0.101,1.003
2026-09-03 15:51:14.657,0,-0.153,-0.101,1.003
2026-09-03 15:51:14.760,0,-0.153,-0.101,1.003
2026-09-03 15:51:14.863,0,-0.153,-0.101,1.003
2026-09-03 15:51:14.966,0,-0.153,-0.102,1.003
2026-09-03 15:51:15.068,0,-0.153,-0.101,1.004
2026-09-03 15:51:15.171,0,-0.153,-0.101,1.004
2026-09-03 15:51:15.273,0,-0.153,-0.101,1.003
2026-09-03 15:51:15.377,0,-0.153,-0.101,1.003
2026-09-03 15:51:15.479,0,-0.153,-0.101,1.003
2026-09-03 15:51:15.582,0,-0.153,-0.101,1.003
2026-09-03 15:51:15.684,0,-0.153,-0.101,1.003
2026-09-03 15:51:15.787,0,-0.153,-0.101,1.003
2026-09-03 15:51:15.890,0,-0.153,-0.102,1.003
2026-09-03 15:51:15.992,0,-0.153,-0.101,1.003
2026-09-03 15:51:16.095,0,-0.153,-0.101,1.003
2026-09-03 15:51:16.198,0,-0.154,-0.101,1.003
2026-09-03 15:51:16.301,0,-0.153,-0.101,1.002
2026-09-03 15:51:16.403,0,-0.153,-0.101,1.002
2026-09-03 15:51:16.506,0,-0.153,-0.101,1.002
2026-09-03 15:51:16.609,0,-0.153,-0.101,1.002
2026-09-03 15:51:16.713,0,-0.153,-0.101,1.002
2026-09-03 15:51:16.817,0,-0.153,-0.101,1.002
2026-09-03 15:51:16.920,0,-0.153,-0.101,1.003
2026-09-03 15:51:17.022,0,-0.153,-0.101,1.003
2026-09-03 15:51:17.127,0,-0.154,-0.101,1.003
2026-09-03 15:51:17.232,0,-0.153,-0.101,1.003
2026-09-03 15:51:17.333,0,-0.154,-0.101,1.003
2026-09-03 15:51:17.438,0,-0.154,-0.101,1.003
2026-09-03 15:51:17.541,0,-0.153,-0.101,1.003
2026-09-03 15:51:17.645,0,-0.154,-0.101,1.003
2026-09-03 15:51:17.747,0,-0.154,-0.101,1.003
2026-09-03 15:51:17.850,0,-0.154,-0.102,1.003
2026-09-03 15:51:17.955,0,-0.154,-0.101,1.003
2026-09-03 15:51:18.058,0,-0.154,-0.101,1.003
2026-09-03 15:51:18.160,0,-0.154,-0.101,1.003
2026-09-03 15:51:18.262,0,-0.154,-0.101,1.003
2026-09-03 15:51:18.365,0,-0.154,-0.101,1.003
2026-09-03 15:51:18.469,0,-0.153,-0.102,1.002
2026-09-03 15:51:18.571,0,-0.153,-0.101,1.002
2026-09-03 15:51:18.674,0,-0.153,-0.101,1.002
2026-09-03 15:51:18.777,0,-0.153,-0.101,1.003
2026-09-03 15:51:18.879,0,-0.153,-0.102,1.002
2026-09-03 15:51:18.983,0,-0.154,-0.101,1.003
2026-09-03 15:51:19.085,0,-0.154,-0.102,1.003
2026-09-03 15:51:19.188,0,-0.154,-0.102,1.003
2026-09-03 15:51:19.291,0,-0.154,-0.102,1.003
2026-09-03 15:51:19.393,0,-0.154,-0.101,1.003
2026-09-03 15:51:19.496,0,-0.154,-0.102,1.003
2026-09-03 15:51:19.599,0,-0.154,-0.102,1.003
2026-09-03 15:51:19.702,0,-0.154,-0.101,1.003
2026-09-03 15:51:19.804,0,-0.153,-0.101,1.003
2026-09-03 15:51:19.907,0,-0.153,-0.101,1.003
2026-09-03 15:51:20.010,0,-0.153,-0.101,1.003
2026-09-03 15:51:20.112,0,-0.153,-0.101,1.003
2026-09-03 15:51:20.215,0,-0.153,-0.101,1.003
2026-09-03 15:51:20.317,0,-0.153,-0.100,1.003
2026-09-03 15:51:20.420,0,-0.154,-0.100,1.003
2026-09-03 15:51:20.523,0,-0.153,-0.101,1.002
2026-09-03 15:51:20.626,0,-0.153,-0.101,1.002
2026-09-03 15:51:20.728,0,-0.153,-0.101,1.002
2026-09-03 15:51:20.831,0,-0.153,-0.101,1.001
2026-09-03 15:51:20.933,0,-0.153,-0.101,1.001
2026-09-03 15:51:21.036,0,-0.153,-0.101,1.002
2026-09-03 15:51:21.140,0,-0.153,-0.101,1.002
2026-09-03 15:51:21.243,0,-0.153,-0.101,1.003
2026-09-03 15:51:21.346,0,-0.153,-0.101,1.003
2026-09-03 15:51:21.449,0,-0.153,-0.101,1.003
2026-09-03 15:51:21.552,0,-0.153,-0.101,1.003
2026-09-03 15:51:21.654,0,-0.153,-0.101,1.002
2026-09-03 15:51:21.757,0,-0.153,-0.101,1.002
2026-09-03 15:51:21.859,0,-0.153,-0.101,1.002
2026-09-03 15:51:21.962,0,-0.153,-0.101,1.002
2026-09-03 15:51:22.064,0,-0.153,-0.101,1.002
2026-09-03 15:51:22.167,0,-0.153,-0.101,1.002
2026-09-03 15:51:22.270,0,-0.153,-0.101,1.002
2026-09-03 15:51:22.373,0,-0.153,-0.101,1.003
2026-09-03 15:51:22.475,0,-0.153,-0.101,1.003
2026-09-03 15:51:22.578,0,-0.153,-0.101,1.003
2026-09-03 15:51:22.680,0,-0.153,-0.101,1.003
2026-09-03 15:51:22.784,0,-0.153,-0.101,1.002
2026-09-03 15:51:22.888,0,-0.153,-0.101,1.000
2026-09-03 15:51:22.992,0,-0.153,-0.101,1.000
2026-09-03 15:51:23.091,0,-0.153,-0.101,1.001
2026-09-03 15:51:23.196,0,-0.154,-0.101,1.002
2026-09-03 15:51:23.299,0,-0.154,-0.101,1.003
2026-09-03 15:51:23.400,0,-0.154,-0.101,1.003
2026-09-03 15:51:23.504,0,-0.153,-0.101,1.002
2026-09-03 15:51:23.607,0,-0.153,-0.101,1.001
2026-09-03 15:51:23.711,0,-0.153,-0.101,1.002
2026-09-03 15:51:23.817,0,-0.153,-0.101,1.001
2026-09-03 15:51:23.917,0,-0.153,-0.101,1.002
2026-09-03 15:51:24.020,0,-0.153,-0.101,1.002
2026-09-03 15:51:24.125,0,-0.153,-0.101,1.001
2026-09-03 15:51:24.226,0,-0.153,-0.101,1.000
2026-09-03 15:51:24.329,0,-0.153,-0.101,1.000
2026-09-03 15:51:24.432,0,-0.153,-0.101,1.001
2026-09-03 15:51:24.535,0,-0.153,-0.100,1.001
2026-09-03 15:51:24.639,0,-0.154,-0.101,1.002
2026-09-03 15:51:24.744,0,-0.154,-0.101,1.002
2026-09-03 15:51:24.847,0,-0.154,-0.101,1.002
2026-09-03 15:51:24.952,0,-0.154,-0.101,1.002
2026-09-03 15:51:25.057,0,-0.154,-0.101,1.003
2026-09-03 15:51:25.161,0,-0.154,-0.101,1.003
2026-09-03 15:51:25.263,0,-0.154,-0.101,1.002
2026-09-03 15:51:25.368,0,-0.154,-0.101,1.002
2026-09-03 15:51:25.471,0,-0.153,-0.101,1.002
2026-09-03 15:51:25.577,0,-0.153,-0.101,1.002
2026-09-03 15:51:25.678,0,-0.153,-0.101,1.003
2026-09-03 15:51:25.780,0,-0.153,-0.101,1.003
2026-09-03 15:51:25.885,0,-0.153,-0.101,1.004
2026-09-03 15:51:25.988,0,-0.153,-0.101,1.003
2026-09-03 15:51:26.090,0,-0.153,-0.101,1.002
2026-09-03 15:51:26.193,0,-0.153,-0.101,1.002
2026-09-03 15:51:26.295,0,-0.153,-0.101,1.002
2026-09-03 15:51:26.398,0,-0.153,-0.101,1.002
2026-09-03 15:51:26.501,0,-0.153,-0.101,1.003
2026-09-03 15:51:26.603,0,-0.153,-0.101,1.002
2026-09-03 15:51:26.712,0,-0.153,-0.101,1.002
2026-09-03 15:51:26.813,0,-0.153,-0.101,1.001
2026-09-03 15:51:26.915,0,-0.153,-0.101,1.001
2026-09-03 15:51:27.018,0,-0.153,-0.101,1.001
2026-09-03 15:51:27.120,0,-0.153,-0.101,1.002
2026-09-03 15:51:27.223,0,-0.153,-0.101,1.002
2026-09-03 15:51:27.326,0,-0.153,-0.101,1.002
2026-09-03 15:51:27.429,0,-0.153,-0.101,1.002
2026-09-03 15:51:27.532,0,-0.152,-0.101,1.001
2026-09-03 15:51:27.635,0,-0.153,-0.102,1.001
2026-09-03 15:51:27.737,0,-0.153,-0.102,1.001
2026-09-03 15:51:27.840,0,-0.153,-0.101,1.002
2026-09-03 15:51:27.943,0,-0.153,-0.102,1.003
2026-09-03 15:51:28.047,0,-0.154,-0.101,1.004
2026-09-03 15:51:28.149,0,-0.154,-0.101,1.004
2026-09-03 15:51:28.253,0,-0.154,-0.101,1.004
2026-09-03 15:51:28.356,0,-0.154,-0.101,1.004
2026-09-03 15:51:28.460,0,-0.153,-0.101,1.003
2026-09-03 15:51:28.562,0,-0.153,-0.101,1.003
2026-09-03 15:51:28.665,0,-0.153,-0.101,1.003
2026-09-03 15:51:28.767,0,-0.153,-0.101,1.003
2026-09-03 15:51:28.870,0,-0.153,-0.101,1.003
2026-09-03 15:51:28.973,0,-0.153,-0.101,1.003
2026-09-03 15:51:29.076,0,-0.153,-0.101,1.004
2026-09-03 15:51:29.180,0,-0.153,-0.101,1.004
2026-09-03 15:51:29.283,0,-0.153,-0.101,1.004
2026-09-03 15:51:29.387,0,-0.153,-0.101,1.004
2026-09-03 15:51:29.489,0,-0.153,-0.101,1.004
2026-09-03 15:51:29.592,0,-0.153,-0.102,1.004
2026-09-03 15:51:29.696,0,-0.153,-0.102,1.003
2026-09-03 15:51:29.800,0,-0.153,-0.102,1.003
2026-09-03 15:51:29.903,0,-0.153,-0.101,1.003
2026-09-03 15:51:30.006,0,-0.153,-0.102,1.003
2026-09-03 15:51:30.110,0,-0.153,-0.102,1.003
2026-09-03 15:51:30.214,0,-0.153,-0.102,1.003
2026-09-03 15:51:30.315,0,-0.153,-0.101,1.003
2026-09-03 15:51:30.420,0,-0.153,-0.101,1.003
2026-09-03 15:51:30.524,0,-0.153,-0.101,1.003
2026-09-03 15:51:30.627,0,-0.153,-0.101,1.003
2026-09-03 15:51:30.735,0,-0.153,-0.101,1.003
2026-09-03 15:51:30.837,0,-0.153,-0.101,1.003
2026-09-03 15:51:30.941,0,-0.154,-0.101,1.004
2026-09-03 15:51:31.046,0,-0.154,-0.101,1.004
2026-09-03 15:51:31.189,0,-.154,-0.101,1.005
2026-09-03 15:51:31.291,0,-0.154,-0.101,1.005
2026-09-03 15:51:31.393,0,-0.154,-0.101,1.004
2026-09-03 15:51:31.497,0,-0.154,-0.101,1.004
2026-09-03 15:51:31.601,0,-0.153,-0.101,1.004
2026-09-03 15:51:31.704,0,-0.153,-0.101,1.003
2026-09-03 15:51:31.806,0,-0.153,-0.101,1.003
2026-09-03 15:51:31.911,0,-0.153,-0.102,1.003
2026-09-03 15:51:32.013,0,-0.153,-0.101,1.003
2026-09-03 15:51:32.117,0,-0.153,-0.101,1.003
2026-09-03 15:51:32.222,0,-0.153,-0.102,1.003
2026-09-03 15:51:32.325,0,-0.153,-0.101,1.003
2026-09-03 15:51:32.427,0,-0.153,-0.101,1.003
2026-09-03 15:51:32.531,0,-0.153,-0.102,1.003
2026-09-03 15:51:32.636,0,-0.153,-0.101,1.003
2026-09-03 15:51:32.739,0,-0.153,-0.101,1.004
2026-09-03 15:51:32.841,0,-0.154,-0.102,1.004
2026-09-03 15:51:32.944,0,-0.154,-0.101,1.005
2026-09-03 15:51:33.047,0,-0.154,-0.101,1.005
2026-09-03 15:51:33.149,0,-0.154,-0.101,1.004
2026-09-03 15:51:33.252,0,-0.153,-0.101,1.003
2026-09-03 15:51:33.355,0,-0.153,-0.101,1.002
2026-09-03 15:51:33.458,0,-0.153,-0.101,1.002
2026-09-03 15:51:33.560,0,-0.153,-0.101,1.002
2026-09-03 15:51:33.663,0,-0.153,-0.101,1.002
2026-09-03 15:51:33.766,0,-0.153,-0.101,1.003
2026-09-03 15:51:33.869,0,-0.153,-0.101,1.003
2026-09-03 15:51:33.971,0,-0.153,-0.101,1.003
2026-09-03 15:51:34.074,0,-0.154,-0.101,1.003
2026-09-03 15:51:34.176,0,-0.153,-0.101,1.003
2026-09-03 15:51:34.278,0,-0.153,-0.101,1.003
2026-09-03 15:51:34.381,0,-0.153,-0.101,1.003
2026-09-03 15:51:34.484,0,-0.153,-0.101,1.003
2026-09-03 15:51:34.586,0,-0.153,-0.101,1.003
2026-09-03 15:51:34.689,0,-0.153,-0.101,1.002
2026-09-03 15:51:34.792,0,-0.154,-0.101,1.002
2026-09-03 15:51:34.895,0,-0.153,-0.101,1.002
2026-09-03 15:51:34.998,0,-0.153,-0.101,1.002
2026-09-03 15:51:35.100,0,-0.153,-0.101,1.003
2026-09-03 15:51:35.203,0,-0.153,-0.101,1.003
2026-09-03 15:51:35.305,0,-0.153,-0.101,1.003
2026-09-03 15:51:35.408,0,-0.153,-0.101,1.003
2026-09-03 15:51:35.511,0,-0.154,-0.101,1.004
2026-09-03 15:51:35.613,0,-0.154,-0.101,1.003
2026-09-03 15:51:35.716,0,-0.154,-0.101,1.004
2026-09-03 15:51:35.819,0,-0.154,-0.102,1.004
2026-09-03 15:51:35.922,0,-0.154,-0.101,1.003
2026-09-03 15:51:36.024,0,-0.154,-0.101,1.002
2026-09-03 15:51:36.127,0,-0.153,-0.101,1.001
2026-09-03 15:51:36.230,0,-0.153,-0.101,1.001
2026-09-03 15:51:36.332,0,-0.154,-0.101,1.001
2026-09-03 15:51:36.434,0,-0.154,-0.101,1.002
2026-09-03 15:51:36.537,0,-0.154,-0.101,1.002
2026-09-03 15:51:36.640,0,-0.154,-0.101,1.002
2026-09-03 15:51:36.743,0,-0.153,-0.101,1.002
2026-09-03 15:51:36.848,0,-0.153,-0.101,1.001
2026-09-03 15:51:36.952,0,-0.153,-0.101,1.001
2026-09-03 15:51:37.055,0,-0.153,-0.101,1.001
2026-09-03 15:51:37.159,0,-0.154,-0.101,1.002
2026-09-03 15:51:37.261,0,-0.154,-0.101,1.002
2026-09-03 15:51:37.363,0,-0.154,-0.101,1.002
2026-09-03 15:51:37.468,0,-0.154,-0.101,1.003
2026-09-03 15:51:37.571,0,-0.154,-0.102,1.002
2026-09-03 15:51:37.672,0,-0.154,-0.102,1.002
2026-09-03 15:51:37.775,0,-0.154,-0.102,1.002
2026-09-03 15:51:37.878,0,-0.153,-0.102,1.002
2026-09-03 15:51:37.983,0,-0.153,-0.102,1.002
2026-09-03 15:51:38.088,0,-0.153,-0.101,1.002
2026-09-03 15:51:38.191,0,-0.153,-0.101,1.002
2026-09-03 15:51:38.295,0,-0.153,-0.101,1.002
2026-09-03 15:51:38.399,0,-0.153,-0.101,1.002
2026-09-03 15:51:38.504,0,-0.153,-0.101,1.002
2026-09-03 15:51:38.607,0,-0.153,-0.101,1.002
2026-09-03 15:51:38.710,0,-0.153,-0.101,1.003
2026-09-03 15:51:38.813,0,-0.153,-0.101,1.003
2026-09-03 15:51:38.915,0,-0.153,-0.101,1.003
2026-09-03 15:51:39.020,0,-0.153,-0.101,1.003
2026-09-03 15:51:39.123,0,-0.153,-0.101,1.003
2026-09-03 15:51:39.226,0,-0.153,-0.101,1.003
2026-09-03 15:51:39.330,0,-0.153,-0.101,1.003
2026-09-03 15:51:39.434,0,-0.153,-0.101,1.003
2026-09-03 15:51:39.538,0,-0.153,-0.101,1.003
2026-09-03 15:51:39.641,0,-0.153,-0.101,1.003
2026-09-03 15:51:39.742,0,-0.153,-0.101,1.003
2026-09-03 15:51:39.844,0,-0.153,-0.101,1.003
2026-09-03 15:51:39.947,0,-0.153,-0.101,1.002
2026-09-03 15:51:40.054,0,-0.153,-0.101,1.002
2026-09-03 15:51:40.156,0,-0.153,-0.101,1.001
2026-09-03 15:51:40.258,0,-0.153,-0.101,1.002
2026-09-03 15:51:40.362,0,-0.153,-0.101,1.002
2026-09-03 15:51:40.464,0,-0.153,-0.101,1.002
2026-09-03 15:51:40.567,0,-0.153,-0.100,1.002
2026-09-03 15:51:40.669,0,-0.154,-0.101,1.002
2026-09-03 15:51:40.773,0,-0.153,-0.101,1.002
2026-09-03 15:51:40.876,0,-0.153,-0.101,1.003
2026-09-03 15:51:40.981,0,-0.153,-0.101,1.003
2026-09-03 15:51:41.082,0,-0.153,-0.101,1.003
2026-09-03 15:51:41.186,0,-0.153,-0.101,1.003
2026-09-03 15:51:41.287,0,-0.153,-0.101,1.003
2026-09-03 15:51:41.392,0,-0.153,-0.101,1.002
2026-09-03 15:51:41.496,0,-0.153,-0.101,1.002
2026-09-03 15:51:41.600,0,-0.153,-0.101,1.002
2026-09-03 15:51:41.702,0,-0.153,-0.101,1.003
2026-09-03 15:51:41.804,0,-0.153,-0.101,1.003
2026-09-03 15:51:41.909,0,-0.153,-0.101,1.002
2026-09-03 15:51:42.012,0,-0.153,-0.101,1.002
2026-09-03 15:51:42.114,0,-0.153,-0.101,1.002
2026-09-03 15:51:42.218,0,-0.153,-0.101,1.002
2026-09-03 15:51:42.319,0,-0.153,-0.101,1.004
2026-09-03 15:51:42.421,0,-0.153,-0.101,1.005
2026-09-03 15:51:42.527,0,-0.153,-0.101,1.004
2026-09-03 15:51:42.628,0,-0.153,-0.101,1.004
2026-09-03 15:51:42.730,0,-0.153,-0.101,1.004
2026-09-03 15:51:42.836,0,-0.153,-0.101,1.003
2026-09-03 15:51:42.938,0,-0.153,-0.101,1.002
2026-09-03 15:51:43.043,0,-0.153,-0.102,1.003
2026-09-03 15:51:43.143,0,-0.153,-0.101,1.003
2026-09-03 15:51:43.246,0,-0.153,-0.100,1.003
2026-09-03 15:51:43.351,0,-0.153,-0.101,1.002
2026-09-03 15:51:43.452,0,-0.153,-0.101,1.003
2026-09-03 15:51:43.555,0,-0.154,-0.100,1.004
2026-09-03 15:51:43.658,0,-0.154,-0.101,1.004
2026-09-03 15:51:43.760,0,-0.154,-0.101,1.004
2026-09-03 15:51:43.863,0,-0.154,-0.101,1.005
2026-09-03 15:51:43.966,0,-0.153,-0.101,1.003
2026-09-03 15:51:44.069,0,-0.153,-0.101,1.003
2026-09-03 15:51:44.171,0,-0.153,-0.100,1.003
2026-09-03 15:51:44.274,0,-0.153,-0.101,1.003
2026-09-03 15:51:44.377,0,-0.153,-0.101,1.002
2026-09-03 15:51:44.480,0,-0.153,-0.101,1.002
2026-09-03 15:51:44.583,0,-0.153,-0.101,1.002
2026-09-03 15:51:44.685,0,-0.153,-0.101,1.002
2026-09-03 15:51:44.788,0,-0.153,-0.101,1.002
2026-09-03 15:51:44.891,0,-0.153,-0.101,1.002
2026-09-03 15:51:44.994,0,-0.153,-0.101,1.002
2026-09-03 15:51:45.097,0,-0.153,-0.101,1.002
2026-09-03 15:51:45.199,0,-0.153,-0.100,1.002
2026-09-03 15:51:45.304,0,-0.153,-0.101,1.002
2026-09-03 15:51:45.407,0,-0.153,-0.101,1.002
2026-09-03 15:51:45.510,0,-0.153,-0.101,1.002
2026-09-03 15:51:45.613,0,-0.153,-0.101,1.002
2026-09-03 15:51:45.715,0,-0.153,-0.102,1.003
2026-09-03 15:51:45.819,0,-0.153,-0.101,1.003
2026-09-03 15:51:45.923,0,-0.154,-0.101,1.006
2026-09-03 15:51:46.029,0,-0.154,-0.101,1.007
2026-09-03 15:51:46.130,0,-0.154,-0.102,1.007
2026-09-03 15:51:46.233,0,-0.153,-0.101,1.005
2026-09-03 15:51:46.336,1,-0.152,-0.101,1.002
2026-09-03 15:51:46.440,1,-0.152,-0.101,1.000
2026-09-03 15:51:46.542,1,-0.152,-0.102,1.001
2026-09-03 15:51:46.649,1,-0.152,-0.103,1.001
2026-09-03 15:51:46.752,1,-0.143,-0.105,1.006
2026-09-03 15:51:46.857,1,-0.123,-0.091,1.006
2026-09-03 15:51:46.961,1,-0.119,-0.074,1.019
2026-09-03 15:51:47.065,1,-0.104,-0.060,1.028
2026-09-03 15:51:47.168,1,-0.074,-0.054,1.038
2026-09-03 15:51:47.273,1,-0.024,-0.054,1.026
2026-09-03 15:51:47.378,0,0.009,-0.078,1.034
2026-09-03 15:51:47.483,0,0.052,-0.107,1.028
2026-09-03 15:51:47.587,0,0.063,-0.165,1.018
2026-09-03 15:51:47.691,0,0.045,-0.249,0.964
2026-09-03 15:51:47.795,0,-0.040,-0.323,0.937
2026-09-03 15:51:47.899,0,-0.131,-0.380,0.915
2026-09-03 15:51:48.003,0,-0.207,-0.422,0.882
2026-09-03 15:51:48.108,0,-0.268,-0.416,0.860
2026-09-03 15:51:48.209,0,-0.320,-0.359,0.894
2026-09-03 15:51:48.314,0,-0.331,-0.292,0.925
2026-09-03 15:51:48.420,0,-0.329,-0.217,0.934
2026-09-03 15:51:48.525,0,-0.334,-0.147,0.947
2026-09-03 15:51:48.630,0,-0.325,-0.075,0.960
2026-09-03 15:51:48.735,0,-0.305,-0.002,0.953
2026-09-03 15:51:48.838,0,-0.277,0.051,0.927
2026-09-03 15:51:48.944,0,-0.246,0.095,0.912
2026-09-03 15:51:49.048,0,-0.198,0.124,0.928
2026-09-03 15:51:49.152,0,-0.115,0.134,0.947
2026-09-03 15:51:49.256,0,-0.050,0.102,0.964
2026-09-03 15:51:49.361,0,0.002,0.035,0.987
2026-09-03 15:51:49.463,0,0.059,-0.056,0.998
2026-09-03 15:51:49.569,0,0.093,-0.148,0.968
2026-09-03 15:51:49.673,0,0.091,-0.225,0.951
2026-09-03 15:51:49.778,0,0.117,-0.230,0.982
2026-09-03 15:51:49.882,0,0.133,-0.200,1.022
2026-09-03 15:51:49.985,0,0.107,-0.160,1.042
2026-09-03 15:51:50.090,0,0.085,-0.102,1.069
2026-09-03 15:51:50.197,0,0.046,-0.078,1.069
2026-09-03 15:51:50.298,0,-0.000,-0.107,1.047
2026-09-03 15:51:50.402,0,-0.039,-0.139,1.016
2026-09-03 15:51:50.506,0,-0.026,-0.145,1.023
2026-09-03 15:51:50.610,0,0.000,-0.165,1.020
2026-09-03 15:51:50.713,0,0.046,-0.172,1.032
2026-09-03 15:51:50.821,0,0.047,-0.178,1.005
2026-09-03 15:51:50.923,0,0.060,-0.146,1.019
2026-09-03 15:51:51.027,0,0.063,-0.144,1.004
2026-09-03 15:51:51.131,0,0.040,-0.137,0.995
2026-09-03 15:51:51.235,0,-0.011,-0.127,0.994
2026-09-03 15:51:51.339,0,-0.043,-0.101,1.018
2026-09-03 15:51:51.444,0,-0.091,-0.108,1.002
2026-09-03 15:51:51.549,0,-0.138,-0.106,0.998
2026-09-03 15:51:51.652,0,-0.155,-0.095,1.006
2026-09-03 15:51:51.759,0,-0.151,-0.088,0.996
2026-09-03 15:51:52.004,0,-0.136,-0.087,1.007
2026-09-03 15:51:52.107,0,-0.133,-0.090,1.011
2026-09-03 15:51:52.211,0,-0.148,-0.099,1.011
2026-09-03 15:51:52.314,0,-0.170,-0.099,1.007
2026-09-03 15:51:52.419,0,-0.178,-0.107,0.995
2026-09-03 15:51:52.522,0,-0.181,-0.108,0.988
2026-09-03 15:51:52.627,0,-0.188,-0.107,0.988
2026-09-03 15:51:52.730,0,-0.193,-0.109,0.988
2026-09-03 15:51:52.833,0,-0.192,-0.112,0.995
2026-09-03 15:51:52.936,0,-0.192,-0.113,0.994
2026-09-03 15:51:53.039,0,-0.192,-0.114,0.994
2026-09-03 15:51:53.142,0,-0.192,-0.114,0.994
2026-09-03 15:51:53.248,0,-0.193,-0.114,0.995
2026-09-03 15:51:53.350,0,-0.185,-0.238,1.039
2026-09-03 15:51:53.454,0,-0.133,-0.241,1.068
2026-09-03 15:51:53.559,0,-0.062,-0.250,1.080
2026-09-03 15:51:53.661,1,0.029,-0.139,1.099
2026-09-03 15:51:53.766,1,0.020,-0.146,1.023
2026-09-03 15:51:53.869,1,0.016,0.038,0.959
2026-09-03 15:51:53.973,1,0.003,0.115,0.942
2026-09-03 15:51:54.076,1,-0.027,0.169,0.925
2026-09-03 15:51:54.180,1,-0.116,0.016,0.853
2026-09-03 15:51:54.283,1,-0.047,0.143,0.940
2026-09-03 15:51:54.388,1,0.009,0.153,1.044
2026-09-03 15:51:54.491,1,0.032,0.078,1.076
2026-09-03 15:51:54.595,1,0.064,0.118,1.141
2026-09-03 15:51:54.698,0,0.063,0.296,1.177
2026-09-03 15:51:54.802,0,-0.017,0.289,1.141
2026-09-03 15:51:54.905,0,-0.126,0.242,0.999
2026-09-03 15:51:55.007,0,-0.260,0.227,0.894
2026-09-03 15:51:55.112,0,-0.397,0.073,0.692
2026-09-03 15:51:55.218,0,-0.476,-0.157,0.616
2026-09-03 15:51:55.322,0,-0.519,-0.269,0.625
2026-09-03 15:51:55.426,0,-0.457,-0.216,0.704
2026-09-03 15:51:55.528,0,-0.327,-0.140,0.832
2026-09-03 15:51:55.633,0,-0.221,-0.014,0.998
2026-09-03 15:51:55.736,0,-0.112,0.129,1.098
2026-09-03 15:51:55.841,0,-0.002,0.200,1.142
2026-09-03 15:51:55.943,0,0.039,0.203,1.105
2026-09-03 15:51:56.089,0,0.44,0.202,1.037
2026-09-03 15:51:56.193,0,0.034,0.187,1.035
2026-09-03 15:51:56.297,0,0.015,0.147,1.036
2026-09-03 15:51:56.402,0,-0.037,0.081,1.003
2026-09-03 15:51:56.505,0,-0.094,-0.001,1.017
2026-09-03 15:51:56.608,0,-0.158,-0.068,1.016
2026-09-03 15:51:56.714,0,-0.195,-0.115,0.991
2026-09-03 15:51:56.818,0,-0.212,-0.128,0.982
2026-09-03 15:51:56.921,0,-0.211,-0.140,0.986
2026-09-03 15:51:57.025,0,-0.213,-0.142,0.985
2026-09-03 15:51:57.129,0,-0.215,-0.140,0.987
2026-09-03 15:51:57.232,0,-0.215,-0.140,0.987
2026-09-03 15:51:57.335,0,-0.215,-0.140,0.988
2026-09-03 15:51:57.437,0,-0.212,-0.140,0.989
2026-09-03 15:51:57.541,0,-0.211,-0.140,0.989
2026-09-03 15:51:57.644,0,-0.211,-0.140,0.989
2026-09-03 15:51:57.746,0,-0.209,-0.140,0.991
2026-09-03 15:51:57.852,0,-0.208,-0.140,0.992
2026-09-03 15:51:57.956,0,-0.211,-0.138,0.991
2026-09-03 15:51:58.059,0,-0.211,-0.138,0.991
2026-09-03 15:51:58.163,0,-0.211,-0.138,0.991
2026-09-03 15:51:58.266,0,-0.212,-0.139,0.988
2026-09-03 15:51:58.370,0,-0.212,-0.139,0.988
2026-09-03 15:51:58.473,0,-0.212,-0.139,0.988
2026-09-03 15:51:58.577,0,-0.212,-0.139,0.988
2026-09-03 15:51:58.681,0,-0.212,-0.139,0.988
2026-09-03 15:51:58.782,0,-0.213,-0.139,0.988
2026-09-03 15:51:58.887,1,-0.212,-0.139,0.987
2026-09-03 15:51:58.992,1,-0.212,-0.139,0.987
2026-09-03 15:51:59.097,1,-0.212,-0.139,0.989
2026-09-03 15:51:59.200,1,-0.213,-0.140,0.993
2026-09-03 15:51:59.305,1,-0.213,-0.140,0.991
2026-09-03 15:51:59.408,1,-0.212,-0.140,0.989
2026-09-03 15:51:59.512,1,-0.212,-0.140,0.989
2026-09-03 15:51:59.617,1,-0.212,-0.139,0.986
2026-09-03 15:51:59.720,1,-0.211,-0.139,0.982
2026-09-03 15:51:59.823,1,-0.212,-0.139,0.985
2026-09-03 15:51:59.925,0,-0.213,-0.139,0.987
2026-09-03 15:52:00.028,0,-0.213,-0.139,0.988
2026-09-03 15:52:00.130,0,-0.214,-0.139,0.988
2026-09-03 15:52:00.234,0,-0.214,-0.139,0.988
2026-09-03 15:52:00.336,0,-0.213,-0.139,0.987
2026-09-03 15:52:00.440,0,-0.213,-0.139,0.987
2026-09-03 15:52:00.545,0,-0.213,-0.139,0.986
2026-09-03 15:52:00.648,0,-0.213,-0.139,0.986
2026-09-03 15:52:00.751,0,-0.213,-0.139,0.986
2026-09-03 15:52:00.853,0,-0.213,-0.139,0.987
2026-09-03 15:52:00.959,0,-0.213,-0.139,0.987
2026-09-03 15:52:01.062,0,-0.213,-0.139,0.987
2026-09-03 15:52:01.165,0,-0.213,-0.139,0.987
2026-09-03 15:52:01.269,0,-0.213,-0.139,0.987
2026-09-03 15:52:01.373,0,-0.213,-0.139,0.987
2026-09-03 15:52:01.479,0,-0.213,-0.139,0.987
2026-09-03 15:52:01.582,0,-0.213,-0.139,0.987
2026-09-03 15:52:01.686,0,-0.213,-0.139,0.987
2026-09-03 15:52:01.789,0,-0.213,-0.139,0.987
2026-09-03 15:52:01.891,0,-0.213,-0.139,0.987
2026-09-03 15:52:01.994,0,-0.213,-0.139,0.987
2026-09-03 15:52:02.098,0,-0.213,-0.139,0.988
2026-09-03 15:52:02.200,0,-0.213,-0.139,0.987
2026-09-03 15:52:02.303,0,-0.213,-0.139,0.987
2026-09-03 15:52:02.406,0,-0.213,-0.139,0.987
2026-09-03 15:52:02.509,0,-0.213,-0.139,0.987
2026-09-03 15:52:02.612,0,-0.213,-0.139,0.986
2026-09-03 15:52:02.717,0,-0.213,-0.139,0.987
2026-09-03 15:52:02.818,0,-0.213,-0.139,0.987
2026-09-03 15:52:02.921,0,-0.213,-0.139,0.986
2026-09-03 15:52:03.025,0,-0.213,-0.139,0.986
2026-09-03 15:52:03.127,0,-0.213,-0.139,0.987
2026-09-03 15:52:03.232,0,-0.213,-0.139,0.987
2026-09-03 15:52:03.334,0,-0.213,-0.139,0.987
2026-09-03 15:52:03.438,0,-0.213,-0.139,0.986
2026-09-03 15:52:03.542,0,-0.213,-0.139,0.986
2026-09-03 15:52:03.645,0,-0.212,-0.139,0.986
2026-09-03 15:52:03.749,0,-0.213,-0.139,0.986
2026-09-03 15:52:03.851,0,-0.213,-0.139,0.987
2026-09-03 15:52:03.954,0,-0.214,-0.139,0.989
2026-09-03 15:52:04.056,0,-0.214,-0.139,0.989
2026-09-03 15:52:04.159,0,-0.214,-0.140,0.989
2026-09-03 15:52:04.262,0,-0.214,-0.139,0.989
2026-09-03 15:52:04.365,0,-0.213,-0.139,0.988
2026-09-03 15:52:04.469,0,-0.213,-0.139,0.987
2026-09-03 15:52:04.570,0,-0.213,-0.140,0.987
2026-09-03 15:52:04.674,0,-0.213,-0.139,0.987
2026-09-03 15:52:04.776,0,-0.213,-0.139,0.987
2026-09-03 15:52:04.879,0,-0.213,-0.139,0.987
2026-09-03 15:52:04.983,0,-0.213,-0.139,0.987
2026-09-03 15:52:05.086,0,-0.213,-0.139,0.987
2026-09-03 15:52:05.188,0,-0.213,-0.139,0.987
2026-09-03 15:52:05.292,0,-0.213,-0.139,0.987
2026-09-03 15:52:05.396,0,-0.213,-0.139,0.988
2026-09-03 15:52:05.538,0,-0213,-0.139,0.988
2026-09-03 15:52:05.641,0,-0.214,-0.139,0.988
2026-09-03 15:52:05.744,0,-0.214,-0.139,0.988
2026-09-03 15:52:05.848,0,-0.213,-0.139,0.988
2026-09-03 15:52:05.951,0,-0.213,-0.139,0.987
2026-09-03 15:52:06.054,0,-0.213,-0.139,0.987
2026-09-03 15:52:06.157,0,-0.213,-0.139,0.987
2026-09-03 15:52:06.259,0,-0.213,-0.139,0.987
2026-09-03 15:52:06.362,0,-0.213,-0.139,0.987
2026-09-03 15:52:06.466,0,-0.213,-0.139,0.987
2026-09-03 15:52:06.569,0,-0.213,-0.139,0.987
2026-09-03 15:52:06.673,0,-0.213,-0.139,0.988
2026-09-03 15:52:06.775,0,-0.213,-0.139,0.988
2026-09-03 15:52:06.880,0,-0.213,-0.139,0.988
2026-09-03 15:52:06.982,0,-0.213,-0.139,0.988
2026-09-03 15:52:07.086,0,-0.213,-0.139,0.988
2026-09-03 15:52:07.189,0,-0.213,-0.139,0.988
2026-09-03 15:52:07.292,0,-0.213,-0.139,0.988
2026-09-03 15:52:07.396,0,-0.213,-0.139,0.988
2026-09-03 15:52:07.499,0,-0.213,-0.139,0.988
2026-09-03 15:52:07.603,0,-0.213,-0.139,0.988
2026-09-03 15:52:07.706,0,-0.213,-0.139,0.988
2026-09-03 15:52:07.810,0,-0.213,-0.139,0.987
2026-09-03 15:52:07.914,0,-0.213,-0.139,0.987
2026-09-03 15:52:08.017,0,-0.213,-0.139,0.987
2026-09-03 15:52:08.121,0,-0.213,-0.139,0.987
2026-09-03 15:52:08.225,0,-0.214,-0.139,0.987
2026-09-03 15:52:08.328,0,-0.214,-0.139,0.987
2026-09-03 15:52:08.432,0,-0.213,-0.139,0.987
2026-09-03 15:52:08.537,0,-0.213,-0.139,0.987
2026-09-03 15:52:08.638,0,-0.213,-0.139,0.987
2026-09-03 15:52:08.741,0,-0.213,-0.139,0.987
2026-09-03 15:52:08.846,0,-0.213,-0.139,0.987
2026-09-03 15:52:08.950,0,-0.213,-0.139,0.987
2026-09-03 15:52:09.052,0,-0.213,-0.139,0.987
2026-09-03 15:52:09.156,0,-0.213,-0.139,0.986
2026-09-03 15:52:09.259,0,-0.213,-0.139,0.987
2026-09-03 15:52:09.363,0,-0.213,-0.139,0.986
2026-09-03 15:52:09.469,0,-0.213,-0.139,0.986
2026-09-03 15:52:09.573,0,-0.213,-0.139,0.986
2026-09-03 15:52:09.675,0,-0.213,-0.139,0.987
2026-09-03 15:52:09.778,0,-0.213,-0.140,0.987
2026-09-03 15:52:09.881,0,-0.214,-0.139,0.987
2026-09-03 15:52:09.985,0,-0.214,-0.139,0.987
2026-09-03 15:52:10.087,0,-0.214,-0.140,0.987
2026-09-03 15:52:10.190,0,-0.214,-0.139,0.987
2026-09-03 15:52:10.293,0,-0.214,-0.139,0.987
2026-09-03 15:52:10.396,0,-0.214,-0.140,0.987
2026-09-03 15:52:10.499,0,-0.213,-0.139,0.987
2026-09-03 15:52:10.603,0,-0.213,-0.139,0.987
2026-09-03 15:52:10.705,0,-0.213,-0.139,0.987
2026-09-03 15:52:10.809,0,-0.213,-0.139,0.987
2026-09-03 15:52:10.912,0,-0.214,-0.139,0.987
2026-09-03 15:52:11.015,0,-0.214,-0.139,0.987
2026-09-03 15:52:11.117,0,-0.214,-0.139,0.987
2026-09-03 15:52:11.221,0,-0.214,-0.139,0.988
2026-09-03 15:52:11.324,0,-0.214,-0.139,0.988
2026-09-03 15:52:11.426,0,-0.213,-0.139,0.987
2026-09-03 15:52:11.529,0,-0.213,-0.139,0.987
2026-09-03 15:52:11.632,0,-0.213,-0.139,0.987
2026-09-03 15:52:11.735,0,-0.213,-0.139,0.987
2026-09-03 15:52:11.837,0,-0.213,-0.139,0.987
2026-09-03 15:52:11.940,0,-0.213,-0.139,0.987
2026-09-03 15:52:12.043,0,-0.213,-0.139,0.987
2026-09-03 15:52:12.146,0,-0.213,-0.139,0.987
2026-09-03 15:52:12.249,0,-0.213,-0.139,0.987
2026-09-03 15:52:12.352,0,-0.213,-0.139,0.987
2026-09-03 15:52:12.454,0,-0.213,-0.139,0.987
2026-09-03 15:52:12.558,0,-0.213,-0.139,0.987
2026-09-03 15:52:12.661,0,-0.213,-0.139,0.987
2026-09-03 15:52:12.764,0,-0.213,-0.139,0.987
2026-09-03 15:52:12.868,0,-0.213,-0.139,0.987
2026-09-03 15:52:12.971,0,-0.213,-0.139,0.987
2026-09-03 15:52:13.073,0,-0.213,-0.140,0.987
2026-09-03 15:52:13.175,0,-0.213,-0.139,0.987
2026-09-03 15:52:13.279,0,-0.213,-0.139,0.987
2026-09-03 15:52:13.382,0,-0.213,-0.139,0.987
2026-09-03 15:52:13.485,0,-0.213,-0.139,0.987
2026-09-03 15:52:13.588,0,-0.213,-0.139,0.987
2026-09-03 15:52:13.692,0,-0.214,-0.139,0.987
2026-09-03 15:52:13.794,0,-0.213,-0.139,0.987
2026-09-03 15:52:13.897,0,-0.213,-0.139,0.988
2026-09-03 15:52:14.000,0,-0.213,-0.139,0.988
2026-09-03 15:52:14.103,0,-0.213,-0.139,0.987
2026-09-03 15:52:14.205,0,-0.213,-0.139,0.987
2026-09-03 15:52:14.309,0,-0.213,-0.139,0.987
2026-09-03 15:52:14.412,0,-0.213,-0.139,0.987
2026-09-03 15:52:14.516,0,-0.213,-0.139,0.987
2026-09-03 15:52:14.619,0,-0.213,-0.139,0.987
2026-09-03 15:52:14.722,0,-0.213,-0.139,0.988
2026-09-03 15:52:14.824,0,-0.213,-0.139,0.988
2026-09-03 15:52:14.927,0,-0.213,-0.139,0.988
2026-09-03 15:52:15.031,0,-0.213,-0.139,0.987
2026-09-03 15:52:15.134,0,-0.213,-0.139,0.987
2026-09-03 15:52:15.237,0,-0.213,-0.139,0.987
2026-09-03 15:52:15.340,0,-0.213,-0.139,0.987
2026-09-03 15:52:15.443,0,-0.213,-0.139,0.987
2026-09-03 15:52:15.546,0,-0.212,-0.139,0.987
2026-09-03 15:52:15.650,0,-0.213,-0.139,0.987
2026-09-03 15:52:15.755,0,-0.213,-0.139,0.986
2026-09-03 15:52:15.855,0,-0.213,-0.139,0.986
2026-09-03 15:52:15.959,0,-0.213,-0.139,0.986
2026-09-03 15:52:16.062,0,-0.213,-0.139,0.987
2026-09-03 15:52:16.164,0,-0.213,-0.139,0.987
2026-09-03 15:52:16.268,0,-0.213,-0.139,0.987
2026-09-03 15:52:16.372,0,-0.213,-0.139,0.987
2026-09-03 15:52:16.475,0,-0.213,-0.139,0.987
2026-09-03 15:52:16.578,0,-0.213,-0.139,0.987
2026-09-03 15:52:16.681,0,-0.213,-0.139,0.986
2026-09-03 15:52:16.784,0,-0.213,-0.139,0.986
2026-09-03 15:52:16.887,0,-0.213,-0.139,0.987
2026-09-03 15:52:16.991,0,-0.213,-0.140,0.988
2026-09-03 15:52:17.095,0,-0.214,-0.140,0.989
2026-09-03 15:52:17.197,0,-0.214,-0.139,0.989
2026-09-03 15:52:17.300,0,-0.214,-0.140,0.988
2026-09-03 15:52:17.403,0,-0.213,-0.140,0.987
2026-09-03 15:52:17.506,0,-0.213,-0.139,0.988
2026-09-03 15:52:17.610,0,-0.213,-0.139,0.986
2026-09-03 15:52:17.714,0,-0.213,-0.139,0.986
2026-09-03 15:52:17.820,0,-0.213,-0.139,0.988
2026-09-03 15:52:17.926,0,-0.214,-0.139,0.988
2026-09-03 15:52:18.030,0,-0.213,-0.139,0.987
2026-09-03 15:52:18.134,0,-0.213,-0.139,0.988
2026-09-03 15:52:18.238,0,-0.214,-0.139,0.988
2026-09-03 15:52:18.342,0,-0.214,-0.140,0.988
2026-09-03 15:52:18.448,0,-0.214,-0.139,0.989
2026-09-03 15:52:18.553,0,-0.214,-0.139,0.989
2026-09-03 15:52:18.657,0,-0.214,-0.140,0.989
2026-09-03 15:52:18.760,0,-0.213,-0.140,0.987
2026-09-03 15:52:18.864,0,-0.213,-0.139,0.987
2026-09-03 15:52:18.967,0,-0.213,-0.139,0.986
2026-09-03 15:52:19.072,0,-0.213,-0.139,0.985
2026-09-03 15:52:19.176,0,-0.213,-0.139,0.985
2026-09-03 15:52:19.278,0,-0.213,-0.139,0.985
2026-09-03 15:52:19.381,0,-0.212,-0.139,0.985
2026-09-03 15:52:19.484,0,-0.212,-0.139,0.985
2026-09-03 15:52:19.587,0,-0.212,-0.139,0.986
2026-09-03 15:52:19.689,0,-0.213,-0.139,0.986
2026-09-03 15:52:19.792,0,-0.213,-0.139,0.987
2026-09-03 15:52:19.895,0,-0.213,-0.139,0.987
2026-09-03 15:52:19.998,0,-0.213,-0.139,0.987
2026-09-03 15:52:20.102,0,-0.213,-0.139,0.987
2026-09-03 15:52:20.205,0,-0.213,-0.139,0.987
2026-09-03 15:52:20.309,0,-0.213,-0.139,0.986
2026-09-03 15:52:20.411,0,-0.213,-0.139,0.986
2026-09-03 15:52:20.514,0,-0.213,-0.139,0.987
2026-09-03 15:52:20.618,0,-0.213,-0.139,0.987
2026-09-03 15:52:20.722,0,-0.213,-0.139,0.987
2026-09-03 15:52:20.825,0,-0.213,-0.139,0.987
2026-09-03 15:52:20.926,0,-0.213,-0.139,0.987
2026-09-03 15:52:21.031,0,-0.213,-0.139,0.987
2026-09-03 15:52:21.133,0,-0.213,-0.139,0.987
2026-09-03 15:52:21.237,0,-0.213,-0.139,0.987
2026-09-03 15:52:21.341,0,-0.213,-0.139,0.987
2026-09-03 15:52:21.444,0,-0.213,-0.139,0.987
2026-09-03 15:52:21.546,0,-0.213,-0.139,0.987
2026-09-03 15:52:21.650,0,-0.213,-0.140,0.987
2026-09-03 15:52:21.754,0,-0.213,-0.140,0.987
2026-09-03 15:52:21.858,0,-0.213,-0.140,0.987
2026-09-03 15:52:21.963,0,-0.213,-0.140,0.987
2026-09-03 15:52:22.067,0,-0.213,-0.140,0.987
2026-09-03 15:52:22.169,0,-0.213,-0.140,0.987
2026-09-03 15:52:22.272,0,-0.213,-0.139,0.987
2026-09-03 15:52:22.375,0,-0.213,-0.140,0.987
2026-09-03 15:52:22.478,0,-0.213,-0.140,0.987
2026-09-03 15:52:22.581,0,-0.213,-0.139,0.987
2026-09-03 15:52:22.684,0,-0.213,-0.140,0.987
2026-09-03 15:52:22.786,0,-0.214,-0.139,0.988
2026-09-03 15:52:22.889,0,-0.214,-0.139,0.988
2026-09-03 15:52:22.993,0,-0.214,-0.139,0.988
2026-09-03 15:52:23.095,0,-0.214,-0.139,0.987
2026-09-03 15:52:23.199,0,-0.213,-0.139,0.987
2026-09-03 15:52:23.302,0,-0.213,-0.139,0.987
2026-09-03 15:52:23.405,0,-0.213,-0.139,0.986
2026-09-03 15:52:23.508,0,-0.213,-0.139,0.987
2026-09-03 15:52:23.610,0,-0.214,-0.139,0.987
2026-09-03 15:52:23.713,0,-0.213,-0.139,0.987
2026-09-03 15:52:23.816,0,-0.213,-0.139,0.988
2026-09-03 15:52:23.920,0,-0.213,-0.139,0.987
2026-09-03 15:52:24.025,0,-0.213,-0.139,0.986
2026-09-03 15:52:24.128,0,-0.213,-0.139,0.986
2026-09-03 15:52:24.231,0,-0.213,-0.139,0.986
2026-09-03 15:52:24.335,0,-0.213,-0.139,0.986
2026-09-03 15:52:24.440,0,-0.213,-0.139,0.986
2026-09-03 15:52:24.542,0,-0.213,-0.139,0.987
2026-09-03 15:52:24.645,0,-0.213,-0.139,0.987
2026-09-03 15:52:24.749,0,-0.213,-0.139,0.987
2026-09-03 15:52:24.852,0,-0.213,-0.140,0.987
2026-09-03 15:52:24.954,0,-0.213,-0.139,0.987
2026-09-03 15:52:25.058,0,-0.213,-0.139,0.987
2026-09-03 15:52:25.200,0,-0213,-0.139,0.987
2026-09-03 15:52:25.303,0,-0.213,-0.139,0.987
2026-09-03 15:52:25.408,0,-0.213,-0.139,0.987
2026-09-03 15:52:25.510,0,-0.213,-0.140,0.987
2026-09-03 15:52:25.613,0,-0.213,-0.140,0.988
2026-09-03 15:52:25.718,0,-0.213,-0.139,0.988
2026-09-03 15:52:25.821,0,-0.214,-0.140,0.990
2026-09-03 15:52:25.926,0,-0.213,-0.140,0.990
2026-09-03 15:52:26.030,0,-0.213,-0.140,0.988
2026-09-03 15:52:26.138,0,-0.212,-0.139,0.987
2026-09-03 15:52:26.244,0,-0.212,-0.140,0.986
2026-09-03 15:52:26.343,0,-0.212,-0.139,0.985
2026-09-03 15:52:26.446,0,-0.212,-0.139,0.986
2026-09-03 15:52:26.548,0,-0.212,-0.140,0.986
2026-09-03 15:52:26.652,0,-0.212,-0.140,0.986
2026-09-03 15:52:26.754,0,-0.212,-0.139,0.986
2026-09-03 15:52:26.857,0,-0.212,-0.140,0.985
2026-09-03 15:52:26.961,0,-0.210,-0.139,0.982
2026-09-03 15:52:27.064,0,-0.209,-0.138,0.982
2026-09-03 15:52:27.166,0,-0.210,-0.139,0.983
2026-09-03 15:52:27.268,0,-0.211,-0.139,0.984
2026-09-03 15:52:27.371,0,-0.212,-0.139,0.986
2026-09-03 15:52:27.474,0,-0.214,-0.139,0.990
2026-09-03 15:52:27.577,0,-0.214,-0.140,0.991
2026-09-03 15:52:27.679,0,-0.214,-0.139,0.991
2026-09-03 15:52:27.782,0,-0.214,-0.139,0.990
2026-09-03 15:52:27.885,1,-0.213,-0.140,0.987
2026-09-03 15:52:27.988,1,-0.213,-0.139,0.987
2026-09-03 15:52:28.091,1,-0.213,-0.139,0.987
2026-09-03 15:52:28.194,1,-0.213,-0.139,0.987
2026-09-03 15:52:28.297,1,-0.213,-0.140,0.987
2026-09-03 15:52:28.400,1,-0.213,-0.139,0.988
2026-09-03 15:52:28.502,1,-0.213,-0.139,0.988
2026-09-03 15:52:28.606,1,-0.213,-0.139,0.988
2026-09-03 15:52:28.709,1,-0.213,-0.139,0.987
2026-09-03 15:52:28.812,1,-0.213,-0.139,0.987
2026-09-03 15:52:28.915,0,-0.213,-0.139,0.987
2026-09-03 15:52:29.018,0,-0.213,-0.139,0.987
2026-09-03 15:52:29.121,0,-0.213,-0.139,0.988
2026-09-03 15:52:29.224,0,-0.213,-0.140,0.988
2026-09-03 15:52:29.327,0,-0.213,-0.140,0.988
2026-09-03 15:52:29.430,0,-0.213,-0.140,0.988
2026-09-03 15:52:29.532,0,-0.213,-0.139,0.987
2026-09-03 15:52:29.636,0,-0.213,-0.139,0.986
2026-09-03 15:52:29.740,0,-0.213,-0.139,0.986
2026-09-03 15:52:29.842,0,-0.213,-0.139,0.986
2026-09-03 15:52:29.944,0,-0.213,-0.139,0.986
2026-09-03 15:52:30.048,0,-0.213,-0.139,0.987
2026-09-03 15:52:30.155,0,-0.213,-0.139,0.987
2026-09-03 15:52:30.260,0,-0.213,-0.139,0.986
2026-09-03 15:52:30.360,0,-0.212,-0.139,0.986
2026-09-03 15:52:30.463,0,-0.212,-0.139,0.985
2026-09-03 15:52:30.566,0,-0.212,-0.139,0.985
2026-09-03 15:52:30.668,0,-0.212,-0.139,0.986
2026-09-03 15:52:30.772,0,-0.213,-0.139,0.986
2026-09-03 15:52:30.875,0,-0.213,-0.139,0.987
2026-09-03 15:52:30.977,0,-0.213,-0.139,0.987
2026-09-03 15:52:31.080,0,-0.213,-0.139,0.986
2026-09-03 15:52:31.183,0,-0.213,-0.139,0.986
2026-09-03 15:52:31.286,0,-0.213,-0.139,0.986
2026-09-03 15:52:31.389,0,-0.213,-0.139,0.986
2026-09-03 15:52:31.492,0,-0.213,-0.139,0.986
2026-09-03 15:52:31.595,0,-0.213,-0.139,0.987
2026-09-03 15:52:31.697,0,-0.213,-0.140,0.987
2026-09-03 15:52:31.801,0,-0.213,-0.139,0.987
2026-09-03 15:52:31.906,0,-0.213,-0.139,0.987
2026-09-03 15:52:32.009,0,-0.213,-0.140,0.987
2026-09-03 15:52:32.112,0,-0.213,-0.140,0.988
2026-09-03 15:52:32.216,0,-0.213,-0.139,0.988
2026-09-03 15:52:32.320,0,-0.213,-0.139,0.988
2026-09-03 15:52:32.422,0,-0.213,-0.139,0.987
2026-09-03 15:52:32.527,0,-0.213,-0.139,0.987
2026-09-03 15:52:32.632,0,-0.213,-0.139,0.987
2026-09-03 15:52:32.735,0,-0.213,-0.139,0.987
2026-09-03 15:52:32.838,0,-0.213,-0.139,0.987
2026-09-03 15:52:32.941,0,-0.213,-0.139,0.987
2026-09-03 15:52:33.046,0,-0.214,-0.139,0.987
2026-09-03 15:52:33.150,0,-0.214,-0.140,0.988
2026-09-03 15:52:33.257,0,-0.214,-0.139,0.988
2026-09-03 15:52:33.360,0,-0.213,-0.139,0.988
2026-09-03 15:52:33.466,0,-0.213,-0.139,0.987
2026-09-03 15:52:33.570,0,-0.213,-0.139,0.987
2026-09-03 15:52:33.674,0,-0.213,-0.139,0.987
2026-09-03 15:52:33.779,0,-0.213,-0.139,0.987
2026-09-03 15:52:33.885,0,-0.213,-0.139,0.988
2026-09-03 15:52:33.987,0,-0.213,-0.139,0.988
2026-09-03 15:52:34.092,0,-0.213,-0.139,0.988
2026-09-03 15:52:34.198,0,-0.213,-0.139,0.988
2026-09-03 15:52:34.302,0,-0.213,-0.139,0.988
2026-09-03 15:52:34.403,0,-0.213,-0.139,0.987
2026-09-03 15:52:34.505,0,-0.213,-0.139,0.987
2026-09-03 15:52:34.608,0,-0.213,-0.139,0.987
2026-09-03 15:52:34.714,0,-0.213,-0.139,0.987
2026-09-03 15:52:34.818,0,-0.213,-0.139,0.987
2026-09-03 15:52:34.922,0,-0.213,-0.139,0.988
2026-09-03 15:52:35.028,0,-0.213,-0.139,0.988
2026-09-03 15:52:35.131,0,-0.213,-0.139,0.987
2026-09-03 15:52:35.235,0,-0.213,-0.139,0.987
2026-09-03 15:52:35.339,0,-0.213,-0.139,0.987
2026-09-03 15:52:35.443,0,-0.213,-0.139,0.987
2026-09-03 15:52:35.546,0,-0.213,-0.139,0.987
2026-09-03 15:52:35.653,0,-0.213,-0.139,0.987
2026-09-03 15:52:35.757,0,-0.213,-0.139,0.987
2026-09-03 15:52:35.862,0,-0.213,-0.139,0.987
2026-09-03 15:52:35.965,0,-0.213,-0.139,0.987
2026-09-03 15:52:36.068,0,-0.213,-0.139,0.987
2026-09-03 15:52:36.170,0,-0.213,-0.139,0.987
2026-09-03 15:52:36.272,0,-0.213,-0.139,0.987
2026-09-03 15:52:36.379,0,-0.213,-0.139,0.987
2026-09-03 15:52:36.481,0,-0.213,-0.139,0.987
2026-09-03 15:52:36.585,0,-0.213,-0.139,0.987
2026-09-03 15:52:36.692,0,-0.213,-0.139,0.987
2026-09-03 15:52:36.795,0,-0.213,-0.139,0.987
2026-09-03 15:52:36.900,0,-0.213,-0.139,0.987
2026-09-03 15:52:36.999,0,-0.213,-0.139,0.987
2026-09-03 15:52:37.104,0,-0.213,-0.139,0.987
2026-09-03 15:52:37.207,0,-0.213,-0.139,0.987
2026-09-03 15:52:37.309,0,-0.214,-0.139,0.988
2026-09-03 15:52:37.415,0,-0.214,-0.139,0.988
2026-09-03 15:52:37.519,0,-0.214,-0.139,0.988
2026-09-03 15:52:37.622,0,-0.214,-0.139,0.987
2026-09-03 15:52:37.727,0,-0.214,-0.139,0.987
2026-09-03 15:52:37.830,0,-0.213,-0.139,0.987
2026-09-03 15:52:37.932,0,-0.213,-0.139,0.987
2026-09-03 15:52:38.035,0,-0.213,-0.139,0.987
2026-09-03 15:52:38.138,0,-0.213,-0.139,0.987
2026-09-03 15:52:38.240,0,-0.213,-0.139,0.987
2026-09-03 15:52:38.343,0,-0.213,-0.139,0.987
2026-09-03 15:52:38.449,0,-0.213,-0.139,0.987
2026-09-03 15:52:38.552,0,-0.213,-0.139,0.987
2026-09-03 15:52:38.657,0,-0.213,-0.139,0.987
2026-09-03 15:52:38.758,0,-0.213,-0.139,0.987
2026-09-03 15:52:38.863,0,-0.213,-0.139,0.988
2026-09-03 15:52:38.967,0,-0.213,-0.139,0.988
2026-09-03 15:52:39.070,0,-0.213,-0.139,0.987
2026-09-03 15:52:39.171,0,-0.213,-0.139,0.987
2026-09-03 15:52:39.277,0,-0.213,-0.139,0.987
2026-09-03 15:52:39.379,0,-0.213,-0.139,0.987
2026-09-03 15:52:39.483,0,-0.213,-0.139,0.987
2026-09-03 15:52:39.585,0,-0.213,-0.139,0.987
2026-09-03 15:52:39.690,0,-0.213,-0.139,0.986
2026-09-03 15:52:39.792,0,-0.213,-0.139,0.986
2026-09-03 15:52:39.897,0,-0.213,-0.139,0.987
2026-09-03 15:52:40.000,0,-0.213,-0.139,0.987
2026-09-03 15:52:40.104,0,-0.213,-0.139,0.987
2026-09-03 15:52:40.208,0,-0.213,-0.139,0.987
2026-09-03 15:52:40.312,0,-0.213,-0.139,0.987
2026-09-03 15:52:40.417,0,-0.213,-0.139,0.986
2026-09-03 15:52:40.518,0,-0.213,-0.139,0.986
2026-09-03 15:52:40.620,0,-0.213,-0.139,0.987
2026-09-03 15:52:40.726,0,-0.213,-0.139,0.987
2026-09-03 15:52:40.831,0,-0.213,-0.139,0.987
2026-09-03 15:52:40.936,0,-0.213,-0.139,0.987
2026-09-03 15:52:41.040,0,-0.213,-0.139,0.988
2026-09-03 15:52:41.143,0,-0.213,-0.139,0.988
2026-09-03 15:52:41.247,0,-0.213,-0.139,0.988
2026-09-03 15:52:41.351,0,-0.213,-0.139,0.988
2026-09-03 15:52:41.454,0,-0.213,-0.139,0.987
2026-09-03 15:52:41.556,0,-0.213,-0.139,0.987
2026-09-03 15:52:41.659,0,-0.213,-0.139,0.987
2026-09-03 15:52:41.761,0,-0.213,-0.139,0.987
2026-09-03 15:52:41.864,0,-0.213,-0.139,0.987
2026-09-03 15:52:41.966,0,-0.213,-0.139,0.987
2026-09-03 15:52:42.069,0,-0.213,-0.139,0.987
2026-09-03 15:52:42.173,0,-0.213,-0.139,0.987
2026-09-03 15:52:42.277,0,-0.213,-0.139,0.987
2026-09-03 15:52:42.380,0,-0.213,-0.139,0.987
2026-09-03 15:52:42.485,0,-0.213,-0.139,0.987
2026-09-03 15:52:42.587,0,-0.213,-0.139,0.987
2026-09-03 15:52:42.691,0,-0.213,-0.139,0.987
2026-09-03 15:52:42.795,0,-0.213,-0.139,0.987
2026-09-03 15:52:42.898,0,-0.213,-0.139,0.987
2026-09-03 15:52:43.002,0,-0.213,-0.139,0.987
2026-09-03 15:52:43.106,0,-0.213,-0.139,0.987
2026-09-03 15:52:43.207,0,-0.213,-0.139,0.987
2026-09-03 15:52:43.312,0,-0.213,-0.139,0.987
2026-09-03 15:52:43.415,0,-0.214,-0.139,0.987
2026-09-03 15:52:43.519,0,-0.214,-0.140,0.988
2026-09-03 15:52:43.621,0,-0.214,-0.140,0.987
2026-09-03 15:52:43.725,0,-0.214,-0.140,0.987
2026-09-03 15:52:43.829,0,-0.213,-0.140,0.987
2026-09-03 15:52:43.932,0,-0.213,-0.140,0.987
2026-09-03 15:52:44.036,0,-0.213,-0.140,0.987
2026-09-03 15:52:44.139,0,-0.213,-0.139,0.987
2026-09-03 15:52:44.243,0,-0.213,-0.139,0.987
2026-09-03 15:52:44.346,0,-0.213,-0.140,0.987
2026-09-03 15:52:44.453,0,-0.213,-0.139,0.987
2026-09-03 15:52:44.553,0,-0.213,-0.139,0.987
2026-09-03 15:52:44.657,0,-0.213,-0.139,0.987
2026-09-03 15:52:44.762,0,-0.213,-0.139,0.987
2026-09-03 15:52:44.866,0,-0.214,-0.139,0.987
2026-09-03 15:52:44.969,0,-0.213,-0.139,0.987
2026-09-03 15:52:45.073,0,-0.213,-0.139,0.987
2026-09-03 15:52:45.176,0,-0.213,-0.139,0.987
2026-09-03 15:52:45.279,0,-0.213,-0.139,0.987
2026-09-03 15:52:45.384,0,-0.213,-0.139,0.987
2026-09-03 15:52:45.488,0,-0.213,-0.139,0.987
2026-09-03 15:52:45.595,0,-0.213,-0.139,0.987
2026-09-03 15:52:45.699,0,-0.213,-0.139,0.987
2026-09-03 15:52:45.804,0,-0.213,-0.139,0.988
2026-09-03 15:52:45.909,0,-0.213,-0.139,0.988
2026-09-03 15:52:46.013,0,-0.213,-0.139,0.988
2026-09-03 15:52:46.118,0,-0.213,-0.139,0.987
2026-09-03 15:52:46.222,0,-0.213,-0.140,0.987
2026-09-03 15:52:46.325,0,-0.213,-0.139,0.987
2026-09-03 15:52:46.427,0,-0.213,-0.139,0.987
2026-09-03 15:52:46.530,0,-0.213,-0.140,0.987
2026-09-03 15:52:46.633,0,-0.213,-0.139,0.987
2026-09-03 15:52:46.736,0,-0.213,-0.139,0.987
2026-09-03 15:52:46.840,0,-0.213,-0.139,0.987
2026-09-03 15:52:46.944,0,-0.213,-0.139,0.986
2026-09-03 15:52:47.048,0,-0.213,-0.139,0.987
2026-09-03 15:52:47.151,0,-0.213,-0.139,0.987
2026-09-03 15:52:47.254,0,-0.213,-0.139,0.987
2026-09-03 15:52:47.358,0,-0.213,-0.139,0.987
2026-09-03 15:52:47.464,0,-0.213,-0.138,0.985
2026-09-03 15:52:47.568,0,-0.213,-0.138,0.986
2026-09-03 15:52:47.672,0,-0.213,-0.138,0.987
2026-09-03 15:52:47.777,0,-0.213,-0.138,0.988
2026-09-03 15:52:47.881,0,-0.213,-0.138,0.986
2026-09-03 15:52:47.986,0,-0.213,-0.139,0.987
2026-09-03 15:52:48.089,0,-0.212,-0.138,0.986
2026-09-03 15:52:48.192,0,-0.210,-0.140,0.981
2026-09-03 15:52:48.297,0,-0.210,-0.139,0.981
2026-09-03 15:52:48.402,0,-0.212,-0.139,0.985
2026-09-03 15:52:48.507,0,-0.213,-0.140,0.988
2026-09-03 15:52:48.611,1,-0.213,-0.140,0.989
2026-09-03 15:52:48.715,1,-0.213,-0.139,0.990
2026-09-03 15:52:48.817,1,-0.213,-0.139,0.988
2026-09-03 15:52:48.924,1,-0.212,-0.140,0.986
2026-09-03 15:52:49.030,1,-0.212,-0.139,0.987
2026-09-03 15:52:49.136,1,-0.212,-0.139,0.987
2026-09-03 15:52:49.239,1,-0.213,-0.140,0.988
2026-09-03 15:52:49.345,1,-0.212,-0.139,0.988
2026-09-03 15:52:49.449,1,-0.212,-0.139,0.987
2026-09-03 15:52:49.555,1,-0.212,-0.140,0.987
2026-09-03 15:52:49.661,1,-0.212,-0.140,0.987
2026-09-03 15:52:49.763,1,-0.213,-0.139,0.988
2026-09-03 15:52:49.869,1,-0.213,-0.139,0.988
2026-09-03 15:52:49.975,1,-0.213,-0.140,0.987
2026-09-03 15:52:50.080,1,-0.212,-0.139,0.986
2026-09-03 15:52:50.185,1,-0.213,-0.139,0.987
2026-09-03 15:52:50.291,1,-0.213,-0.140,0.987
2026-09-03 15:52:50.395,1,-0.212,-0.139,0.988
2026-09-03 15:52:50.498,1,-0.212,-0.139,0.987
2026-09-03 15:52:50.601,1,-0.212,-0.140,0.987
2026-09-03 15:52:50.705,0,-0.212,-0.139,0.987
2026-09-03 15:52:50.809,0,-0.212,-0.139,0.987
2026-09-03 15:52:50.915,0,-0.213,-0.140,0.987
2026-09-03 15:52:51.018,0,-0.212,-0.140,0.987
2026-09-03 15:52:51.124,0,-0.212,-0.140,0.987
2026-09-03 15:52:51.230,0,-0.212,-0.140,0.987
2026-09-03 15:52:51.334,0,-0.212,-0.140,0.987
2026-09-03 15:52:51.438,0,-0.212,-0.139,0.987
2026-09-03 15:52:51.543,0,-0.212,-0.139,0.987
2026-09-03 15:52:51.685,0,-0.212,-0.139,0.86
2026-09-03 15:52:51.790,0,-0.211,-0.139,0.986
2026-09-03 15:52:51.892,0,-0.211,-0.139,0.985
2026-09-03 15:52:51.997,0,-0.211,-0.139,0.985
2026-09-03 15:52:52.100,0,-0.212,-0.139,0.986
2026-09-03 15:52:52.202,0,-0.212,-0.139,0.987
2026-09-03 15:52:52.311,0,-0.212,-0.140,0.987
2026-09-03 15:52:52.415,0,-0.212,-0.140,0.987
2026-09-03 15:52:52.519,0,-0.212,-0.140,0.987
2026-09-03 15:52:52.623,0,-0.212,-0.139,0.987
2026-09-03 15:52:52.726,0,-0.212,-0.139,0.987
2026-09-03 15:52:52.831,0,-0.212,-0.139,0.987
2026-09-03 15:52:52.938,0,-0.212,-0.139,0.988
2026-09-03 15:52:53.042,0,-0.212,-0.139,0.988
2026-09-03 15:52:53.147,0,-0.212,-0.139,0.987
2026-09-03 15:52:53.253,0,-0.212,-0.139,0.987
2026-09-03 15:52:53.358,0,-0.212,-0.139,0.987
2026-09-03 15:52:53.464,0,-0.212,-0.139,0.987
2026-09-03 15:52:53.570,0,-0.212,-0.139,0.987
2026-09-03 15:52:53.675,0,-0.212,-0.139,0.987
2026-09-03 15:52:53.780,0,-0.212,-0.139,0.987
2026-09-03 15:52:53.884,0,-0.212,-0.139,0.987
2026-09-03 15:52:53.990,0,-0.212,-0.139,0.987
2026-09-03 15:52:54.096,0,-0.212,-0.139,0.987
2026-09-03 15:52:54.200,0,-0.212,-0.139,0.988
2026-09-03 15:52:54.307,0,-0.212,-0.139,0.987
2026-09-03 15:52:54.412,0,-0.212,-0.139,0.988
2026-09-03 15:52:54.516,0,-0.212,-0.139,0.987
2026-09-03 15:52:54.621,0,-0.212,-0.140,0.988
2026-09-03 15:52:54.728,0,-0.212,-0.140,0.988
2026-09-03 15:52:54.832,0,-0.212,-0.140,0.988
2026-09-03 15:52:54.936,0,-0.212,-0.140,0.988
2026-09-03 15:52:55.044,0,-0.212,-0.140,0.987
2026-09-03 15:52:55.147,0,-0.212,-0.139,0.987
2026-09-03 15:52:55.250,0,-0.212,-0.139,0.987
2026-09-03 15:52:55.358,0,-0.212,-0.139,0.987
2026-09-03 15:52:55.459,0,-0.212,-0.139,0.987
2026-09-03 15:52:55.564,0,-0.212,-0.139,0.987
2026-09-03 15:52:55.669,0,-0.212,-0.139,0.987
2026-09-03 15:52:55.774,0,-0.212,-0.139,0.987
2026-09-03 15:52:55.880,0,-0.212,-0.139,0.987
2026-09-03 15:52:55.985,0,-0.212,-0.139,0.987
2026-09-03 15:52:56.087,0,-0.212,-0.139,0.987
2026-09-03 15:52:56.200,0,-0.212,-0.139,0.987
2026-09-03 15:52:56.297,0,-0.212,-0.139,0.987
2026-09-03 15:52:56.401,0,-0.212,-0.139,0.987
2026-09-03 15:52:56.507,0,-0.212,-0.139,0.987
2026-09-03 15:52:56.610,0,-0.212,-0.139,0.987
2026-09-03 15:52:56.715,0,-0.212,-0.139,0.987
2026-09-03 15:52:56.816,0,-0.212,-0.139,0.987
2026-09-03 15:52:56.919,0,-0.212,-0.139,0.987
2026-09-03 15:52:57.024,0,-0.212,-0.140,0.988
2026-09-03 15:52:57.126,0,-0.212,-0.140,0.988
2026-09-03 15:52:57.231,0,-0.212,-0.139,0.987
2026-09-03 15:52:57.336,0,-0.212,-0.140,0.988
2026-09-03 15:52:57.440,0,-0.212,-0.139,0.987
2026-09-03 15:52:57.545,0,-0.212,-0.139,0.987
2026-09-03 15:52:57.650,0,-0.212,-0.139,0.987
2026-09-03 15:52:57.756,0,-0.212,-0.140,0.987
2026-09-03 15:52:57.861,0,-0.212,-0.140,0.987
2026-09-03 15:52:57.966,0,-0.212,-0.140,0.987
2026-09-03 15:52:58.074,0,-0.212,-0.140,0.987
2026-09-03 15:52:58.178,0,-0.212,-0.140,0.987
2026-09-03 15:52:58.282,0,-0.212,-0.140,0.987
2026-09-03 15:52:58.385,0,-0.212,-0.140,0.987
2026-09-03 15:52:58.489,0,-0.212,-0.140,0.987
2026-09-03 15:52:58.594,0,-0.212,-0.140,0.987
2026-09-03 15:52:58.698,0,-0.212,-0.140,0.987
2026-09-03 15:52:58.802,0,-0.212,-0.140,0.988
2026-09-03 15:52:58.909,0,-0.213,-0.139,0.988
2026-09-03 15:52:59.012,0,-0.213,-0.139,0.988
2026-09-03 15:52:59.118,1,-0.213,-0.139,0.988
2026-09-03 15:52:59.223,1,-0.213,-0.139,0.988
2026-09-03 15:52:59.327,1,-0.212,-0.139,0.987
2026-09-03 15:52:59.431,1,-0.212,-0.139,0.987
2026-09-03 15:52:59.536,1,-0.212,-0.139,0.987
2026-09-03 15:52:59.639,1,-0.212,-0.139,0.988
2026-09-03 15:52:59.746,1,-0.212,-0.139,0.988
2026-09-03 15:52:59.852,1,-0.212,-0.139,0.988
2026-09-03 15:52:59.956,1,-0.212,-0.139,0.988
2026-09-03 15:53:00.060,1,-0.212,-0.139,0.988
2026-09-03 15:53:00.165,0,-0.212,-0.139,0.987
2026-09-03 15:53:00.269,0,-0.212,-0.139,0.987
2026-09-03 15:53:00.374,0,-0.212,-0.139,0.987
2026-09-03 15:53:00.480,0,-0.212,-0.139,0.987
2026-09-03 15:53:00.583,0,-0.212,-0.139,0.987
2026-09-03 15:53:00.687,0,-0.212,-0.139,0.988
2026-09-03 15:53:00.791,0,-0.212,-0.139,0.988
2026-09-03 15:53:00.894,0,-0.212,-0.139,0.987
2026-09-03 15:53:00.998,0,-0.212,-0.140,0.987
2026-09-03 15:53:01.103,0,-0.212,-0.140,0.987
2026-09-03 15:53:01.207,0,-0.212,-0.139,0.987
2026-09-03 15:53:01.311,0,-0.212,-0.140,0.987
2026-09-03 15:53:01.413,0,-0.212,-0.140,0.988
2026-09-03 15:53:01.518,0,-0.212,-0.139,0.987
2026-09-03 15:53:01.621,0,-0.212,-0.139,0.987
2026-09-03 15:53:01.726,0,-0.212,-0.139,0.987
2026-09-03 15:53:01.832,0,-0.212,-0.139,0.987
2026-09-03 15:53:01.938,0,-0.212,-0.139,0.987
2026-09-03 15:53:02.044,0,-0.212,-0.139,0.988
2026-09-03 15:53:02.147,0,-0.212,-0.139,0.988
2026-09-03 15:53:02.253,0,-0.212,-0.139,0.987
2026-09-03 15:53:02.358,0,-0.212,-0.139,0.987
2026-09-03 15:53:02.463,0,-0.212,-0.139,0.987
2026-09-03 15:53:02.568,0,-0.212,-0.139,0.987
2026-09-03 15:53:02.672,0,-0.212,-0.139,0.987
2026-09-03 15:53:02.778,0,-0.212,-0.139,0.987
2026-09-03 15:53:02.883,0,-0.212,-0.139,0.987
2026-09-03 15:53:02.989,0,-0.212,-0.139,0.987
2026-09-03 15:53:03.092,0,-0.212,-0.139,0.987
2026-09-03 15:53:03.196,0,-0.212,-0.140,0.987
2026-09-03 15:53:03.301,0,-0.212,-0.140,0.987
2026-09-03 15:53:03.402,0,-0.212,-0.140,0.987
2026-09-03 15:53:03.506,0,-0.212,-0.140,0.987
2026-09-03 15:53:03.610,0,-0.212,-0.140,0.987
2026-09-03 15:53:03.715,0,-0.213,-0.140,0.987
2026-09-03 15:53:03.817,0,-0.213,-0.139,0.987
2026-09-03 15:53:03.921,0,-0.212,-0.139,0.987
2026-09-03 15:53:04.025,0,-0.212,-0.139,0.987
2026-09-03 15:53:04.127,0,-0.212,-0.139,0.987
2026-09-03 15:53:04.232,0,-0.212,-0.139,0.987
2026-09-03 15:53:04.336,0,-0.212,-0.139,0.988
2026-09-03 15:53:04.441,0,-0.212,-0.139,0.988
2026-09-03 15:53:04.542,0,-0.212,-0.139,0.988
2026-09-03 15:53:04.647,0,-0.212,-0.139,0.988
2026-09-03 15:53:04.750,0,-0.212,-0.139,0.988
2026-09-03 15:53:04.854,0,-0.212,-0.139,0.988
2026-09-03 15:53:04.958,0,-0.212,-0.139,0.988
2026-09-03 15:53:05.062,0,-0.212,-0.139,0.987
2026-09-03 15:53:05.164,0,-0.212,-0.139,0.987
2026-09-03 15:53:05.268,0,-0.212,-0.139,0.987
2026-09-03 15:53:05.374,0,-0.212,-0.139,0.987
2026-09-03 15:53:05.475,0,-0.212,-0.139,0.987
2026-09-03 15:53:05.580,0,-0.212,-0.139,0.987
2026-09-03 15:53:05.684,0,-0.212,-0.139,0.987
2026-09-03 15:53:05.787,0,-0.212,-0.139,0.987
2026-09-03 15:53:05.891,0,-0.212,-0.139,0.987
2026-09-03 15:53:05.997,0,-0.212,-0.139,0.987
2026-09-03 15:53:06.102,0,-0.212,-0.140,0.987
2026-09-03 15:53:06.207,0,-0.212,-0.139,0.988
2026-09-03 15:53:06.312,0,-0.212,-0.139,0.987
2026-09-03 15:53:06.421,0,-0.212,-0.140,0.987
2026-09-03 15:53:06.526,0,-0.213,-0.140,0.987
2026-09-03 15:53:06.631,0,-0.212,-0.139,0.987
2026-09-03 15:53:06.733,0,-0.221,-0.122,0.997
2026-09-03 15:53:06.838,0,-0.220,-0.113,1.002
2026-09-03 15:53:06.944,0,-0.202,-0.098,1.021
2026-09-03 15:53:07.048,0,-0.153,-0.138,1.024
2026-09-03 15:53:07.154,0,-0.154,-0.204,0.999
2026-09-03 15:53:07.260,0,-0.170,-0.294,0.967
2026-09-03 15:53:07.365,0,-0.166,-0.323,0.976
2026-09-03 15:53:07.468,1,-0.185,-0.348,0.956
2026-09-03 15:53:07.572,1,-0.232,-0.254,0.962
2026-09-03 15:53:07.677,1,-0.195,-0.119,0.938
2026-09-03 15:53:07.780,1,-0.144,0.014,0.962
2026-09-03 15:53:07.884,1,-0.140,0.061,0.944
2026-09-03 15:53:07.989,1,-0.153,0.077,0.940
2026-09-03 15:53:08.094,1,-0.124,0.011,0.948
2026-09-03 15:53:08.199,1,-0.090,-0.047,1.003
2026-09-03 15:53:08.304,1,-0.057,-0.142,1.047
2026-09-03 15:53:08.408,1,0.008,-0.194,1.049
2026-09-03 15:53:08.512,0,0.063,-0.208,1.050
2026-09-03 15:53:08.618,0,0.094,-0.111,1.048
2026-09-03 15:53:08.719,0,0.071,-0.142,1.030
2026-09-03 15:53:08.823,0,0.059,-0.084,1.008
2026-09-03 15:53:08.926,0,0.020,-0.044,1.022
2026-09-03 15:53:09.032,0,0.016,-0.021,1.085
2026-09-03 15:53:09.137,0,0.004,-0.056,1.074
2026-09-03 15:53:09.241,0,0.008,0.013,1.090
2026-09-03 15:53:09.345,0,0.011,0.039,1.071
2026-09-03 15:53:09.447,0,0.027,0.074,1.062
2026-09-03 15:53:09.551,0,0.040,0.109,1.009
2026-09-03 15:53:09.655,0,0.041,0.109,1.010
2026-09-03 15:53:09.757,0,0.040,0.108,1.010
2026-09-03 15:53:09.863,0,0.040,0.108,1.010
2026-09-03 15:53:09.967,0,0.041,0.107,1.010
2026-09-03 15:53:10.073,0,0.041,0.107,1.010
2026-09-03 15:53:10.176,0,0.041,0.107,1.010
2026-09-03 15:53:10.281,0,0.041,0.107,1.011
2026-09-03 15:53:10.385,0,0.041,0.107,1.010
2026-09-03 15:53:10.488,0,0.041,0.107,1.011
2026-09-03 15:53:10.592,0,0.040,0.108,1.011
2026-09-03 15:53:10.695,0,0.041,0.108,1.011
2026-09-03 15:53:10.798,0,0.040,0.108,1.011
2026-09-03 15:53:10.900,0,0.040,0.108,1.011
2026-09-03 15:53:11.002,0,0.040,0.108,1.011
2026-09-03 15:53:11.107,0,0.040,0.108,1.011
2026-09-03 15:53:11.212,0,0.040,0.108,1.011
2026-09-03 15:53:11.316,0,0.040,0.107,1.011
2026-09-03 15:53:11.420,0,0.040,0.108,1.010
2026-09-03 15:53:11.525,0,0.040,0.108,1.010
2026-09-03 15:53:11.628,1,0.040,0.107,1.011
2026-09-03 15:53:11.732,1,0.041,0.107,1.011
2026-09-03 15:53:11.834,1,0.040,0.108,1.011
2026-09-03 15:53:11.942,1,0.040,0.108,1.011
2026-09-03 15:53:12.044,1,0.040,0.108,1.011
2026-09-03 15:53:12.147,1,0.040,0.108,1.011
2026-09-03 15:53:12.252,1,0.040,0.108,1.011
2026-09-03 15:53:12.355,1,0.040,0.108,1.011
2026-09-03 15:53:12.459,1,0.040,0.108,1.010
2026-09-03 15:53:12.564,1,0.040,0.108,1.011
2026-09-03 15:53:12.669,0,0.040,0.108,1.011
2026-09-03 15:53:12.772,0,0.041,0.108,1.011
2026-09-03 15:53:12.879,0,0.041,0.108,1.011
2026-09-03 15:53:12.982,0,0.041,0.108,1.011
2026-09-03 15:53:13.086,0,0.041,0.108,1.011
2026-09-03 15:53:13.191,0,0.040,0.108,1.011
2026-09-03 15:53:13.298,0,0.040,0.108,1.011
2026-09-03 15:53:13.398,0,0.040,0.108,1.010
2026-09-03 15:53:13.502,0,0.040,0.107,1.011
2026-09-03 15:53:13.604,0,0.040,0.107,1.011
2026-09-03 15:53:13.708,0,0.041,0.107,1.011
2026-09-03 15:53:13.813,0,0.041,0.107,1.011
2026-09-03 15:53:13.916,0,0.041,0.107,1.011
2026-09-03 15:53:14.020,0,0.040,0.107,1.011
2026-09-03 15:53:14.127,0,0.040,0.107,1.011
2026-09-03 15:53:14.228,0,0.040,0.107,1.011
2026-09-03 15:53:14.332,0,0.041,0.107,1.011
2026-09-03 15:53:14.436,0,0.040,0.108,1.011
2026-09-03 15:53:14.540,0,0.040,0.107,1.011
2026-09-03 15:53:14.643,0,0.040,0.107,1.011
2026-09-03 15:53:14.747,0,0.040,0.107,1.011
2026-09-03 15:53:14.852,0,0.040,0.107,1.010
2026-09-03 15:53:14.955,0,0.040,0.107,1.010
2026-09-03 15:53:15.059,0,0.040,0.107,1.011
2026-09-03 15:53:15.163,0,0.040,0.108,1.011
2026-09-03 15:53:15.266,0,0.040,0.108,1.011
2026-09-03 15:53:15.371,0,0.040,0.107,1.011
2026-09-03 15:53:15.475,0,0.040,0.108,1.011
2026-09-03 15:53:15.578,0,0.040,0.108,1.010
2026-09-03 15:53:15.683,0,0.040,0.108,1.010
2026-09-03 15:53:15.787,0,0.040,0.108,1.010
2026-09-03 15:53:15.890,0,0.040,0.108,1.010
2026-09-03 15:53:15.996,0,0.040,0.107,1.010
2026-09-03 15:53:16.100,0,0.040,0.107,1.010
2026-09-03 15:53:16.202,0,0.041,0.108,1.011
2026-09-03 15:53:16.308,0,0.041,0.108,1.011
2026-09-03 15:53:16.413,0,0.041,0.108,1.011
2026-09-03 15:53:16.516,0,0.041,0.108,1.011
2026-09-03 15:53:16.622,0,0.041,0.108,1.011
2026-09-03 15:53:16.725,0,0.040,0.107,1.010
2026-09-03 15:53:16.828,0,0.040,0.108,1.010
2026-09-03 15:53:16.936,0,0.040,0.108,1.010
2026-09-03 15:53:17.038,0,0.040,0.108,1.010
2026-09-03 15:53:17.144,0,0.040,0.108,1.010
2026-09-03 15:53:17.248,0,0.040,0.108,1.010
2026-09-03 15:53:17.353,0,0.040,0.108,1.010
2026-09-03 15:53:17.454,0,0.040,0.108,1.010
2026-09-03 15:53:17.558,0,0.040,0.107,1.010
2026-09-03 15:53:17.663,0,0.040,0.107,1.010
2026-09-03 15:53:17.766,0,0.040,0.107,1.010
2026-09-03 15:53:17.871,1,0.040,0.107,1.011
2026-09-03 15:53:17.975,1,0.040,0.107,1.011
2026-09-03 15:53:18.080,1,0.040,0.108,1.011
2026-09-03 15:53:18.183,1,0.040,0.108,1.011
2026-09-03 15:53:18.289,1,0.040,0.108,1.011
2026-09-03 15:53:18.394,1,0.040,0.107,1.011
2026-09-03 15:53:18.500,1,0.040,0.107,1.011
2026-09-03 15:53:18.603,1,0.041,0.107,1.011
2026-09-03 15:53:18.705,1,0.041,0.107,1.011
2026-09-03 15:53:18.810,1,0.041,0.107,1.011
2026-09-03 15:53:18.913,0,0.041,0.107,1.010
2026-09-03 15:53:19.018,0,0.041,0.107,1.010
2026-09-03 15:53:19.122,0,0.040,0.107,1.011
2026-09-03 15:53:19.228,0,0.040,0.107,1.010
2026-09-03 15:53:19.332,0,0.041,0.108,1.010
2026-09-03 15:53:19.437,0,0.040,0.108,1.011
2026-09-03 15:53:19.541,0,0.041,0.108,1.011
2026-09-03 15:53:19.647,0,0.040,0.108,1.011
2026-09-03 15:53:19.752,0,0.040,0.108,1.011
2026-09-03 15:53:19.855,0,0.040,0.108,1.011
2026-09-03 15:53:19.958,0,0.040,0.108,1.011
2026-09-03 15:53:20.064,0,0.040,0.108,1.010
2026-09-03 15:53:20.168,0,0.040,0.107,1.011
2026-09-03 15:53:20.271,0,0.040,0.107,1.011
2026-09-03 15:53:20.375,0,0.040,0.107,1.011
2026-09-03 15:53:20.479,0,0.040,0.107,1.011
2026-09-03 15:53:20.582,0,0.040,0.107,1.010
2026-09-03 15:53:20.685,0,0.040,0.107,1.010
2026-09-03 15:53:20.788,0,0.041,0.107,1.010
2026-09-03 15:53:20.892,0,0.041,0.107,1.010
2026-09-03 15:53:20.996,0,0.040,0.107,1.010
2026-09-03 15:53:21.100,0,0.041,0.107,1.010
2026-09-03 15:53:21.205,0,0.041,0.107,1.010
2026-09-03 15:53:21.309,0,0.040,0.107,1.010
2026-09-03 15:53:21.415,0,0.040,0.107,1.011
2026-09-03 15:53:21.517,0,0.040,0.107,1.010
2026-09-03 15:53:21.622,0,0.040,0.107,1.011
2026-09-03 15:53:21.728,0,0.040,0.107,1.010
2026-09-03 15:53:21.832,0,0.040,0.107,1.011
2026-09-03 15:53:21.936,0,0.040,0.107,1.010
2026-09-03 15:53:22.040,1,0.040,0.107,1.011
2026-09-03 15:53:22.145,1,0.040,0.107,1.011
2026-09-03 15:53:22.246,1,0.040,0.107,1.010
2026-09-03 15:53:22.350,1,0.041,0.107,1.010
2026-09-03 15:53:22.455,1,0.040,0.107,1.010
2026-09-03 15:53:22.558,1,0.041,0.107,1.010
2026-09-03 15:53:22.662,1,0.040,0.107,1.010
2026-09-03 15:53:22.764,1,0.040,0.107,1.010
2026-09-03 15:53:22.870,1,0.040,0.107,1.011
2026-09-03 15:53:22.974,1,0.040,0.107,1.010
2026-09-03 15:53:23.080,0,0.040,0.107,1.010
2026-09-03 15:53:23.184,0,0.040,0.107,1.011
2026-09-03 15:53:23.289,0,0.040,0.108,1.011
2026-09-03 15:53:23.392,0,0.040,0.108,1.011
2026-09-03 15:53:23.496,0,0.040,0.108,1.011
2026-09-03 15:53:23.600,0,0.041,0.108,1.011
2026-09-03 15:53:23.705,0,0.040,0.108,1.010
2026-09-03 15:53:23.807,0,0.040,0.108,1.011
2026-09-03 15:53:23.910,0,0.040,0.107,1.011
2026-09-03 15:53:24.016,0,0.041,0.108,1.011
2026-09-03 15:53:24.117,0,0.041,0.108,1.011
2026-09-03 15:53:24.220,0,0.041,0.108,1.011
2026-09-03 15:53:24.323,0,0.040,0.107,1.010
2026-09-03 15:53:24.428,0,0.040,0.108,1.010
2026-09-03 15:53:24.532,0,0.040,0.108,1.010
2026-09-03 15:53:24.635,0,0.040,0.108,1.011
2026-09-03 15:53:24.737,0,0.040,0.108,1.011
2026-09-03 15:53:24.843,0,0.040,0.108,1.011
2026-09-03 15:53:24.945,0,0.040,0.108,1.011
2026-09-03 15:53:25.049,0,0.040,0.107,1.011
2026-09-03 15:53:25.153,0,0.040,0.108,1.010
2026-09-03 15:53:25.257,0,0.040,0.108,1.010
2026-09-03 15:53:25.361,0,0.040,0.108,1.011
2026-09-03 15:53:25.466,0,0.040,0.108,1.011
2026-09-03 15:53:25.569,0,0.040,0.108,1.011
2026-09-03 15:53:25.673,0,0.040,0.107,1.011
2026-09-03 15:53:25.778,0,0.040,0.107,1.011
2026-09-03 15:53:25.881,0,0.040,0.107,1.010
2026-09-03 15:53:25.985,0,0.040,0.107,1.010
2026-09-03 15:53:26.090,0,0.040,0.107,1.010
2026-09-03 15:53:26.195,0,0.040,0.107,1.010
2026-09-03 15:53:26.298,0,0.040,0.108,1.010
2026-09-03 15:53:26.403,0,0.040,0.107,1.010
2026-09-03 15:53:26.508,0,0.040,0.107,1.010
2026-09-03 15:53:26.613,0,0.040,0.107,1.010
2026-09-03 15:53:26.717,0,0.041,0.107,1.010
2026-09-03 15:53:26.821,0,0.041,0.108,1.011
2026-09-03 15:53:26.923,0,0.041,0.108,1.011
2026-09-03 15:53:27.027,0,0.040,0.108,1.013
2026-09-03 15:53:27.132,0,0.040,0.108,1.009
2026-09-03 15:53:27.238,1,0.040,0.107,1.004
2026-09-03 15:53:27.342,1,0.040,0.106,1.004
2026-09-03 15:53:27.447,1,0.040,0.107,1.003
2026-09-03 15:53:27.551,1,0.040,0.106,1.002
2026-09-03 15:53:27.655,1,0.040,0.107,1.007
2026-09-03 15:53:27.758,1,0.040,0.108,1.011
2026-09-03 15:53:27.863,1,0.039,0.108,1.011
2026-09-03 15:53:27.968,1,0.039,0.107,1.012
2026-09-03 15:53:28.073,1,0.039,0.108,1.011
2026-09-03 15:53:28.175,1,0.040,0.108,1.010
2026-09-03 15:53:28.279,0,0.041,0.107,1.008
2026-09-03 15:53:28.383,0,0.042,0.109,1.008
2026-09-03 15:53:28.486,0,0.042,0.109,1.011
2026-09-03 15:53:28.591,0,0.041,0.109,1.015
2026-09-03 15:53:28.695,0,0.037,0.124,1.022
2026-09-03 15:53:28.795,0,0.036,0.123,1.022
2026-09-03 15:53:28.900,0,0.035,0.120,1.022
2026-09-03 15:53:29.003,0,0.036,0.119,1.019
2026-09-03 15:53:29.106,0,0.036,0.119,1.017
2026-09-03 15:53:29.210,0,0.040,0.107,1.011
2026-09-03 15:53:29.313,0,0.039,0.100,1.014
2026-09-03 15:53:29.416,0,0.041,0.110,1.012
2026-09-03 15:53:29.519,0,0.041,0.108,1.014
2026-09-03 15:53:29.623,0,0.036,0.097,1.016
2026-09-03 15:53:29.727,0,0.042,0.082,1.030
2026-09-03 15:53:29.829,0,0.027,0.081,1.052
2026-09-03 15:53:29.934,0,-0.004,0.052,1.073
2026-09-03 15:53:30.037,0,-0.045,0.015,1.057
2026-09-03 15:53:30.142,0,-0.099,-0.019,1.029
2026-09-03 15:53:30.246,0,-0.168,-0.066,0.991
2026-09-03 15:53:30.351,0,-0.227,-0.098,0.967
2026-09-03 15:53:30.456,0,-0.275,-0.108,0.960
2026-09-03 15:53:30.560,0,-0.303,-0.098,0.979
2026-09-03 15:53:30.664,0,-0.317,-0.084,0.990
2026-09-03 15:53:30.767,0,-0.342,-0.047,0.992
2026-09-03 15:53:30.872,0,-0.359,-0.020,0.953
2026-09-03 15:53:30.976,0,-0.380,0.020,0.913
2026-09-03 15:53:31.082,0,-0.409,0.066,0.891
2026-09-03 15:53:31.185,0,-0.433,0.122,0.890
2026-09-03 15:53:31.289,0,-0.437,0.170,0.884
2026-09-03 15:53:31.393,0,-0.420,0.194,0.891
2026-09-03 15:53:31.498,0,-0.388,0.160,0.912
2026-09-03 15:53:31.602,0,-0.345,0.084,0.923
2026-09-03 15:53:31.705,0,-0.303,-0.026,0.900
2026-09-03 15:53:31.809,0,-0.263,-0.135,0.902
2026-09-03 15:53:31.914,0,-0.212,-0.228,0.927
2026-09-03 15:53:32.016,0,-0.144,-0.286,0.940
2026-09-03 15:53:32.162,0,-0.084,-0.26,0.948
2026-09-03 15:53:32.268,0,-0.029,-0.178,1.006
2026-09-03 15:53:32.372,0,0.039,-0.089,1.023
2026-09-03 15:53:32.477,1,0.071,0.014,1.036
2026-09-03 15:53:32.582,1,0.100,0.116,1.016
2026-09-03 15:53:32.686,1,0.130,0.178,1.027
2026-09-03 15:53:32.789,1,0.127,0.212,1.009
2026-09-03 15:53:32.893,1,0.086,0.246,1.016
2026-09-03 15:53:32.996,1,0.027,0.264,1.006
2026-09-03 15:53:33.100,1,-0.077,0.273,1.016
2026-09-03 15:53:33.203,1,-0.197,0.280,0.990
2026-09-03 15:53:33.308,1,-0.287,0.267,0.959
2026-09-03 15:53:33.414,1,-0.360,0.252,0.936
2026-09-03 15:53:33.517,0,-0.413,0.240,0.886
2026-09-03 15:53:33.622,0,-0.463,0.246,0.864
2026-09-03 15:53:33.725,0,-0.492,0.240,0.841
2026-09-03 15:53:33.830,0,-0.490,0.208,0.873
2026-09-03 15:53:33.934,0,-0.466,0.123,0.885
2026-09-03 15:53:34.038,0,-0.450,0.038,0.884
2026-09-03 15:53:34.143,0,-0.422,-0.035,0.848
2026-09-03 15:53:34.247,0,-0.377,-0.100,0.857
2026-09-03 15:53:34.352,0,-0.323,-0.108,0.839
2026-09-03 15:53:34.463,0,-0.252,-0.038,0.893
2026-09-03 15:53:34.561,0,-0.168,0.013,0.964
2026-09-03 15:53:34.665,0,-0.051,0.029,1.008
2026-09-03 15:53:34.768,0,-0.000,0.063,1.054
2026-09-03 15:53:34.874,0,0.024,0.050,1.068
2026-09-03 15:53:34.978,0,0.006,0.012,1.019
2026-09-03 15:53:35.082,0,-0.028,-0.018,1.002
2026-09-03 15:53:35.187,0,-0.084,-0.033,1.019
2026-09-03 15:53:35.291,0,-0.102,-0.061,1.001
2026-09-03 15:53:35.395,0,-0.126,-0.067,0.998
2026-09-03 15:53:35.500,0,-0.139,-0.077,1.006
2026-09-03 15:53:35.604,0,-0.137,-0.077,1.007
2026-09-03 15:53:35.706,0,-0.137,-0.076,1.007
2026-09-03 15:53:35.811,0,-0.137,-0.076,1.007
2026-09-03 15:53:35.912,0,-0.137,-0.076,1.007
2026-09-03 15:53:36.017,0,-0.137,-0.076,1.007
2026-09-03 15:53:36.121,0,-0.137,-0.076,1.007
2026-09-03 15:53:36.223,0,-0.137,-0.076,1.007
2026-09-03 15:53:36.329,0,-0.137,-0.076,1.007
2026-09-03 15:53:36.432,0,-0.137,-0.076,1.007
2026-09-03 15:53:36.536,0,-0.137,-0.076,1.007
2026-09-03 15:53:36.640,0,-0.137,-0.077,1.006
2026-09-03 15:53:36.743,0,-0.137,-0.076,1.006
2026-09-03 15:53:36.845,0,-0.137,-0.077,1.006
2026-09-03 15:53:36.949,0,-0.137,-0.077,1.006
2026-09-03 15:53:37.055,0,-0.137,-0.076,1.006
2026-09-03 15:53:37.160,0,-0.138,-0.076,1.006
2026-09-03 15:53:37.264,0,-0.138,-0.077,1.006
2026-09-03 15:53:37.368,0,-0.138,-0.077,1.006
2026-09-03 15:53:37.472,0,-0.138,-0.076,1.007
2026-09-03 15:53:37.574,0,-0.138,-0.077,1.007
2026-09-03 15:53:37.679,1,-0.138,-0.077,1.007
2026-09-03 15:53:37.782,1,-0.139,-0.076,1.007
2026-09-03 15:53:37.883,1,-0.139,-0.076,1.007
2026-09-03 15:53:37.987,1,-0.139,-0.077,1.007
2026-09-03 15:53:38.090,1,-0.139,-0.077,1.007
2026-09-03 15:53:38.195,1,-0.139,-0.076,1.007
2026-09-03 15:53:38.298,1,-0.139,-0.077,1.007
2026-09-03 15:53:38.399,1,-0.139,-0.077,1.007
2026-09-03 15:53:38.503,1,-0.139,-0.077,1.007
2026-09-03 15:53:38.606,1,-0.139,-0.077,1.007
2026-09-03 15:53:38.708,0,-0.139,-0.077,1.007
2026-09-03 15:53:38.812,0,-0.139,-0.077,1.007
2026-09-03 15:53:38.915,0,-0.139,-0.077,1.007
2026-09-03 15:53:39.018,0,-0.139,-0.077,1.007
2026-09-03 15:53:39.122,0,-0.139,-0.077,1.007
2026-09-03 15:53:39.228,0,-0.139,-0.077,1.007
2026-09-03 15:53:39.330,0,-0.139,-0.077,1.007
2026-09-03 15:53:39.433,0,-0.139,-0.077,1.007
2026-09-03 15:53:39.536,0,-0.139,-0.077,1.007
2026-09-03 15:53:39.639,0,-0.138,-0.077,1.007
2026-09-03 15:53:39.741,0,-0.138,-0.077,1.007
2026-09-03 15:53:39.847,0,-0.138,-0.077,1.006
2026-09-03 15:53:39.988,0,0.138,-0.077,1.007
2026-09-03 15:53:40.092,0,-0.138,-0.077,1.006
2026-09-03 15:53:40.195,0,-0.138,-0.077,1.006
2026-09-03 15:53:40.298,0,-0.138,-0.076,1.006
2026-09-03 15:53:40.401,0,-0.138,-0.076,1.006
2026-09-03 15:53:40.505,0,-0.138,-0.076,1.006
2026-09-03 15:53:40.610,0,-0.139,-0.076,1.006
2026-09-03 15:53:40.712,0,-0.139,-0.076,1.007
2026-09-03 15:53:40.815,0,-0.139,-0.077,1.007
2026-09-03 15:53:40.921,0,-0.139,-0.077,1.007
2026-09-03 15:53:41.027,0,-0.139,-0.077,1.007
2026-09-03 15:53:41.130,0,-0.139,-0.077,1.007
2026-09-03 15:53:41.233,0,-0.139,-0.077,1.007
2026-09-03 15:53:41.337,0,-0.139,-0.077,1.007
2026-09-03 15:53:41.439,0,-0.139,-0.077,1.007
2026-09-03 15:53:41.541,0,-0.139,-0.077,1.006
2026-09-03 15:53:41.647,0,-0.139,-0.077,1.006
2026-09-03 15:53:41.749,0,-0.138,-0.077,1.005
2026-09-03 15:53:41.851,0,-0.138,-0.077,1.006
2026-09-03 15:53:41.954,0,-0.138,-0.077,1.006
2026-09-03 15:53:42.056,0,-0.138,-0.077,1.006
2026-09-03 15:53:42.162,0,-0.138,-0.076,1.006
2026-09-03 15:53:42.263,0,-0.138,-0.077,1.006
2026-09-03 15:53:42.366,0,-0.138,-0.077,1.006
2026-09-03 15:53:42.471,0,-0.138,-0.077,1.006
2026-09-03 15:53:42.577,0,-0.138,-0.077,1.006
2026-09-03 15:53:42.679,0,-0.138,-0.077,1.006
2026-09-03 15:53:42.784,0,-0.138,-0.077,1.006
2026-09-03 15:53:42.888,0,-0.138,-0.077,1.006
2026-09-03 15:53:42.989,0,-0.138,-0.077,1.006
2026-09-03 15:53:43.093,0,-0.138,-0.077,1.006
2026-09-03 15:53:43.198,0,-0.139,-0.077,1.006
2026-09-03 15:53:43.300,0,-0.138,-0.077,1.007
2026-09-03 15:53:43.403,0,-0.138,-0.077,1.007
2026-09-03 15:53:43.507,0,-0.138,-0.077,1.007
2026-09-03 15:53:43.612,0,-0.138,-0.077,1.007
2026-09-03 15:53:43.715,0,-0.138,-0.077,1.007
2026-09-03 15:53:43.817,0,-0.138,-0.077,1.007
2026-09-03 15:53:43.922,0,-0.139,-0.077,1.007
2026-09-03 15:53:44.024,0,-0.139,-0.077,1.007
2026-09-03 15:53:44.128,0,-0.139,-0.077,1.006
2026-09-03 15:53:44.232,0,-0.139,-0.077,1.006
2026-09-03 15:53:44.335,0,-0.139,-0.077,1.006
2026-09-03 15:53:44.442,0,-0.138,-0.077,1.006
2026-09-03 15:53:44.544,0,-0.138,-0.077,1.006
2026-09-03 15:53:44.649,0,-0.138,-0.077,1.007
2026-09-03 15:53:44.755,0,-0.138,-0.077,1.007
2026-09-03 15:53:44.859,0,-0.138,-0.077,1.007
2026-09-03 15:53:44.962,0,-0.139,-0.077,1.007
2026-09-03 15:53:45.068,0,-0.138,-0.077,1.007
2026-09-03 15:53:45.171,0,-0.139,-0.077,1.007
2026-09-03 15:53:45.274,0,-0.138,-0.077,1.006
2026-09-03 15:53:45.377,0,-0.139,-0.077,1.006
2026-09-03 15:53:45.480,0,-0.138,-0.077,1.006
2026-09-03 15:53:45.585,0,-0.138,-0.077,1.006
2026-09-03 15:53:45.687,0,-0.138,-0.077,1.006
2026-09-03 15:53:45.791,0,-0.139,-0.077,1.007
2026-09-03 15:53:45.894,0,-0.138,-0.077,1.007
2026-09-03 15:53:45.996,0,-0.138,-0.077,1.006
2026-09-03 15:53:46.101,0,-0.138,-0.077,1.006
2026-09-03 15:53:46.204,0,-0.138,-0.077,1.006
2026-09-03 15:53:46.309,0,-0.138,-0.077,1.006
2026-09-03 15:53:46.413,0,-0.138,-0.077,1.006
2026-09-03 15:53:46.516,0,-0.138,-0.077,1.006
2026-09-03 15:53:46.621,0,-0.138,-0.077,1.006
2026-09-03 15:53:46.726,0,-0.138,-0.077,1.006
2026-09-03 15:53:46.831,0,-0.138,-0.077,1.006
2026-09-03 15:53:46.934,0,-0.138,-0.077,1.006
2026-09-03 15:53:47.040,0,-0.138,-0.077,1.006
2026-09-03 15:53:47.144,0,-0.138,-0.077,1.006
2026-09-03 15:53:47.248,0,-0.138,-0.077,1.006
2026-09-03 15:53:47.352,0,-0.138,-0.077,1.007
2026-09-03 15:53:47.458,0,-0.138,-0.077,1.007
2026-09-03 15:53:47.559,0,-0.138,-0.077,1.007
2026-09-03 15:53:47.664,0,-0.138,-0.077,1.007
2026-09-03 15:53:47.767,0,-0.138,-0.077,1.007
2026-09-03 15:53:47.871,0,-0.138,-0.077,1.006
2026-09-03 15:53:47.976,0,-0.138,-0.077,1.007
2026-09-03 15:53:48.080,0,-0.138,-0.077,1.007
2026-09-03 15:53:48.184,0,-0.138,-0.077,1.007
2026-09-03 15:53:48.286,0,-0.138,-0.077,1.007
2026-09-03 15:53:48.391,0,-0.138,-0.077,1.006
2026-09-03 15:53:48.493,0,-0.138,-0.077,1.006
2026-09-03 15:53:48.597,0,-0.138,-0.077,1.005
2026-09-03 15:53:48.703,0,-0.138,-0.077,1.005
2026-09-03 15:53:48.805,0,-0.138,-0.077,1.005
2026-09-03 15:53:48.909,0,-0.138,-0.077,1.006
2026-09-03 15:53:49.011,0,-0.139,-0.077,1.006
2026-09-03 15:53:49.115,0,-0.139,-0.077,1.007
2026-09-03 15:53:49.219,0,-0.139,-0.077,1.007
2026-09-03 15:53:49.323,0,-0.139,-0.077,1.006
2026-09-03 15:53:49.427,0,-0.138,-0.077,1.006
2026-09-03 15:53:49.530,0,-0.138,-0.077,1.006
2026-09-03 15:53:49.634,0,-0.139,-0.077,1.007
2026-09-03 15:53:49.736,0,-0.138,-0.077,1.006
2026-09-03 15:53:49.841,0,-0.138,-0.077,1.006
2026-09-03 15:53:49.944,0,-0.138,-0.077,1.006
2026-09-03 15:53:50.046,0,-0.138,-0.077,1.006
2026-09-03 15:53:50.149,0,-0.138,-0.077,1.005
2026-09-03 15:53:50.255,0,-0.138,-0.077,1.006
2026-09-03 15:53:50.356,0,-0.138,-0.077,1.006
2026-09-03 15:53:50.458,0,-0.138,-0.077,1.006
2026-09-03 15:53:50.562,0,-0.138,-0.077,1.006
2026-09-03 15:53:50.665,0,-0.138,-0.077,1.006
2026-09-03 15:53:50.770,0,-0.138,-0.077,1.006
2026-09-03 15:53:50.873,0,-0.138,-0.077,1.006
2026-09-03 15:53:50.975,0,-0.138,-0.078,1.006
2026-09-03 15:53:51.080,0,-0.138,-0.078,1.006
2026-09-03 15:53:51.180,0,-0.138,-0.077,1.006
2026-09-03 15:53:51.286,0,-0.138,-0.078,1.006
2026-09-03 15:53:51.391,0,-0.138,-0.078,1.006
2026-09-03 15:53:51.496,0,-0.138,-0.077,1.006
2026-09-03 15:53:51.610,0,-0.138,-0.077,1.006
2026-09-03 15:53:51.705,0,-0.138,-0.077,1.007
2026-09-03 15:53:51.809,0,-0.138,-0.077,1.007
2026-09-03 15:53:51.911,0,-0.138,-0.077,1.007
2026-09-03 15:53:52.017,0,-0.138,-0.077,1.007
2026-09-03 15:53:52.124,0,-0.138,-0.077,1.007
2026-09-03 15:53:52.227,0,-0.138,-0.077,1.007
2026-09-03 15:53:52.331,0,-0.138,-0.077,1.007
2026-09-03 15:53:52.434,0,-0.138,-0.077,1.007
2026-09-03 15:53:52.537,0,-0.139,-0.077,1.007
2026-09-03 15:53:52.642,0,-0.139,-0.077,1.007
2026-09-03 15:53:52.747,0,-0.139,-0.077,1.007
2026-09-03 15:53:52.850,0,-0.139,-0.077,1.007
2026-09-03 15:53:52.953,0,-0.139,-0.077,1.007
2026-09-03 15:53:53.055,0,-0.138,-0.077,1.007
2026-09-03 15:53:53.160,0,-0.138,-0.077,1.007
2026-09-03 15:53:53.265,0,-0.138,-0.077,1.006
2026-09-03 15:53:53.370,0,-0.138,-0.077,1.006
2026-09-03 15:53:53.472,0,-0.138,-0.077,1.006
2026-09-03 15:53:53.577,0,-0.138,-0.077,1.007
2026-09-03 15:53:53.682,0,-0.138,-0.078,1.007
2026-09-03 15:53:53.787,0,-0.138,-0.078,1.007
2026-09-03 15:53:53.889,0,-0.138,-0.078,1.007
2026-09-03 15:53:53.995,0,-0.138,-0.078,1.007
2026-09-03 15:53:54.100,0,-0.138,-0.078,1.007
2026-09-03 15:53:54.206,0,-0.138,-0.077,1.006
2026-09-03 15:53:54.310,0,-0.138,-0.077,1.006
2026-09-03 15:53:54.415,0,-0.138,-0.077,1.006
2026-09-03 15:53:54.519,0,-0.138,-0.077,1.007
2026-09-03 15:53:54.625,0,-0.139,-0.078,1.007
2026-09-03 15:53:54.729,0,-0.139,-0.077,1.007
2026-09-03 15:53:54.835,0,-0.139,-0.077,1.007
2026-09-03 15:53:54.938,0,-0.139,-0.078,1.007
2026-09-03 15:53:55.042,0,-0.138,-0.077,1.007
2026-09-03 15:53:55.147,0,-0.138,-0.077,1.006
2026-09-03 15:53:55.249,0,-0.138,-0.077,1.006
2026-09-03 15:53:55.353,0,-0.138,-0.077,1.006
2026-09-03 15:53:55.458,0,-0.138,-0.077,1.006
2026-09-03 15:53:55.561,0,-0.138,-0.077,1.006
2026-09-03 15:53:55.665,0,-0.138,-0.078,1.005
2026-09-03 15:53:55.770,0,-0.138,-0.077,1.006
2026-09-03 15:53:55.872,0,-0.138,-0.077,1.006
2026-09-03 15:53:55.975,0,-0.138,-0.077,1.006
2026-09-03 15:53:56.081,0,-0.138,-0.077,1.006
2026-09-03 15:53:56.184,0,-0.138,-0.077,1.006
2026-09-03 15:53:56.291,0,-0.138,-0.077,1.006
2026-09-03 15:53:56.389,0,-0.138,-0.077,1.006
2026-09-03 15:53:56.494,0,-0.138,-0.077,1.006
2026-09-03 15:53:56.596,0,-0.138,-0.077,1.007
2026-09-03 15:53:56.701,0,-0.138,-0.077,1.007
2026-09-03 15:53:56.804,0,-0.138,-0.077,1.008
2026-09-03 15:53:56.906,0,-0.138,-0.077,1.007
2026-09-03 15:53:57.010,0,-0.139,-0.077,1.007
2026-09-03 15:53:57.116,0,-0.139,-0.077,1.007
2026-09-03 15:53:57.221,0,-0.139,-0.077,1.007
2026-09-03 15:53:57.325,0,-0.139,-0.077,1.006
2026-09-03 15:53:57.429,0,-0.139,-0.077,1.006
2026-09-03 15:53:57.534,0,-0.138,-0.077,1.006
2026-09-03 15:53:57.638,0,-0.138,-0.077,1.006
2026-09-03 15:53:57.743,0,-0.138,-0.077,1.006
2026-09-03 15:53:57.847,0,-0.138,-0.077,1.006
2026-09-03 15:53:57.949,0,-0.139,-0.078,1.006
2026-09-03 15:53:58.057,0,-0.139,-0.078,1.006
2026-09-03 15:53:58.160,0,-0.139,-0.078,1.007
2026-09-03 15:53:58.260,0,-0.139,-0.078,1.007
2026-09-03 15:53:58.362,0,-0.138,-0.078,1.007
2026-09-03 15:53:58.464,0,-0.138,-0.078,1.007
2026-09-03 15:53:58.568,0,-0.138,-0.077,1.007
2026-09-03 15:53:58.673,0,-0.138,-0.077,1.006
2026-09-03 15:53:58.773,0,-0.138,-0.078,1.006
2026-09-03 15:53:58.876,0,-0.138,-0.077,1.006
2026-09-03 15:53:58.981,0,-0.138,-0.077,1.006
2026-09-03 15:53:59.085,0,-0.138,-0.077,1.006
2026-09-03 15:53:59.191,0,-0.139,-0.077,1.006
2026-09-03 15:53:59.292,0,-0.139,-0.077,1.007
2026-09-03 15:53:59.398,0,-0.139,-0.078,1.007
2026-09-03 15:53:59.501,0,-0.139,-0.078,1.007
2026-09-03 15:53:59.605,0,-0.139,-0.077,1.007
2026-09-03 15:53:59.707,0,-0.139,-0.078,1.007
2026-09-03 15:53:59.810,0,-0.139,-0.078,1.007
2026-09-03 15:53:59.912,0,-0.139,-0.078,1.006
2026-09-03 15:54:00.015,0,-0.138,-0.077,1.006
2026-09-03 15:54:00.119,0,-0.138,-0.077,1.006
2026-09-03 15:54:00.223,0,-0.138,-0.077,1.006
2026-09-03 15:54:00.325,0,-0.138,-0.077,1.006
2026-09-03 15:54:00.428,0,-0.138,-0.077,1.006
2026-09-03 15:54:00.532,0,-0.138,-0.077,1.006
2026-09-03 15:54:00.634,0,-0.138,-0.077,1.006
2026-09-03 15:54:00.737,0,-0.138,-0.077,1.006
2026-09-03 15:54:00.840,0,-0.138,-0.077,1.006
2026-09-03 15:54:00.942,0,-0.138,-0.078,1.006
2026-09-03 15:54:01.045,0,-0.138,-0.077,1.006
2026-09-03 15:54:01.148,0,-0.138,-0.077,1.007
2026-09-03 15:54:01.251,0,-0.139,-0.077,1.007
2026-09-03 15:54:01.355,0,-0.138,-0.077,1.007
2026-09-03 15:54:01.457,0,-0.138,-0.077,1.007
2026-09-03 15:54:01.562,0,-0.138,-0.077,1.007
2026-09-03 15:54:01.667,0,-0.138,-0.077,1.007
2026-09-03 15:54:01.766,0,-0.138,-0.077,1.007
2026-09-03 15:54:01.869,0,-0.138,-0.077,1.007
2026-09-03 15:54:01.972,0,-0.138,-0.077,1.007
2026-09-03 15:54:02.078,0,-0.138,-0.077,1.006
2026-09-03 15:54:02.178,0,-0.138,-0.077,1.007
2026-09-03 15:54:02.283,0,-0.139,-0.077,1.007
2026-09-03 15:54:02.386,0,-0.139,-0.077,1.006
2026-09-03 15:54:02.489,0,-0.138,-0.077,1.007
2026-09-03 15:54:02.593,0,-0.138,-0.077,1.007
2026-09-03 15:54:02.695,0,-0.138,-0.077,1.007
2026-09-03 15:54:02.799,0,-0.138,-0.077,1.007
2026-09-03 15:54:02.902,0,-0.138,-0.077,1.007
2026-09-03 15:54:03.005,0,-0.138,-0.077,1.007
2026-09-03 15:54:03.111,0,-0.138,-0.078,1.007
2026-09-03 15:54:03.212,0,-0.138,-0.077,1.007
2026-09-03 15:54:03.313,0,-0.138,-0.077,1.006
2026-09-03 15:54:03.417,0,-0.138,-0.077,1.006
2026-09-03 15:54:03.522,0,-0.138,-0.077,1.006
2026-09-03 15:54:03.625,0,-0.138,-0.077,1.006
2026-09-03 15:54:03.730,0,-0.138,-0.077,1.006
2026-09-03 15:54:03.833,0,-0.138,-0.077,1.006
2026-09-03 15:54:03.935,0,-0.138,-0.077,1.006
2026-09-03 15:54:04.039,0,-0.138,-0.077,1.006
2026-09-03 15:54:04.144,0,-0.139,-0.077,1.006
2026-09-03 15:54:04.247,0,-0.138,-0.078,1.007
2026-09-03 15:54:04.351,0,-0.138,-0.077,1.006
2026-09-03 15:54:04.455,0,-0.138,-0.077,1.006
2026-09-03 15:54:04.559,0,-0.138,-0.078,1.006
2026-09-03 15:54:04.660,0,-0.138,-0.077,1.006
2026-09-03 15:54:04.764,0,-0.138,-0.077,1.006
2026-09-03 15:54:04.870,0,-0.138,-0.077,1.005
2026-09-03 15:54:04.973,0,-0.138,-0.077,1.006
2026-09-03 15:54:05.079,0,-0.139,-0.077,1.006
2026-09-03 15:54:05.180,0,-0.139,-0.077,1.007
2026-09-03 15:54:05.284,0,-0.139,-0.077,1.007
2026-09-03 15:54:05.386,0,-0.139,-0.077,1.007
2026-09-03 15:54:05.491,0,-0.139,-0.077,1.006
2026-09-03 15:54:05.595,0,-0.139,-0.078,1.006
2026-09-03 15:54:05.696,0,-0.138,-0.078,1.006
2026-09-03 15:54:05.801,0,-0.138,-0.077,1.006
2026-09-03 15:54:05.906,0,-0.138,-0.078,1.006
2026-09-03 15:54:06.005,0,-0.138,-0.078,1.006
2026-09-03 15:54:06.110,0,-0.139,-0.078,1.006
2026-09-03 15:54:06.216,0,-0.139,-0.078,1.007
2026-09-03 15:54:06.319,0,-0.139,-0.078,1.007
2026-09-03 15:54:06.424,0,-0.138,-0.077,1.007
2026-09-03 15:54:06.526,0,-0.138,-0.077,1.006
2026-09-03 15:54:06.627,0,-0.138,-0.077,1.006
2026-09-03 15:54:06.730,0,-0.138,-0.077,1.006
2026-09-03 15:54:06.835,0,-0.138,-0.077,1.006
2026-09-03 15:54:06.938,0,-0.138,-0.077,1.006
2026-09-03 15:54:07.043,0,-0.138,-0.077,1.007
2026-09-03 15:54:07.146,0,-0.139,-0.077,1.007
2026-09-03 15:54:07.250,0,-0.139,-0.077,1.007
2026-09-03 15:54:07.354,0,-0.139,-0.077,1.007
2026-09-03 15:54:07.459,0,-0.139,-0.077,1.007
2026-09-03 15:54:07.564,0,-0.138,-0.077,1.007
2026-09-03 15:54:07.665,0,-0.138,-0.078,1.007
2026-09-03 15:54:07.770,0,-0.138,-0.077,1.007
2026-09-03 15:54:07.874,0,-0.138,-0.077,1.007
2026-09-03 15:54:07.978,0,-0.138,-0.077,1.007
2026-09-03 15:54:08.082,0,-0.138,-0.077,1.006
2026-09-03 15:54:08.183,0,-0.138,-0.077,1.007
2026-09-03 15:54:08.289,0,-0.138,-0.077,1.007
2026-09-03 15:54:08.394,0,-0.138,-0.077,1.007
2026-09-03 15:54:08.497,0,-0.138,-0.077,1.007
2026-09-03 15:54:08.603,0,-0.138,-0.077,1.007
2026-09-03 15:54:08.706,0,-0.138,-0.078,1.006
2026-09-03 15:54:08.810,0,-0.138,-0.078,1.006
2026-09-03 15:54:08.913,0,-0.138,-0.077,1.006
2026-09-03 15:54:09.016,0,-0.138,-0.077,1.006
2026-09-03 15:54:09.121,0,-0.139,-0.077,1.006
2026-09-03 15:54:09.224,0,-0.139,-0.077,1.006
2026-09-03 15:54:09.328,0,-0.139,-0.077,1.006
2026-09-03 15:54:09.432,0,-0.138,-0.077,1.006
2026-09-03 15:54:09.536,0,-0.138,-0.078,1.006
2026-09-03 15:54:09.638,0,-0.138,-0.078,1.007
2026-09-03 15:54:09.744,0,-0.138,-0.077,1.007
2026-09-03 15:54:09.848,0,-0.138,-0.078,1.007
2026-09-03 15:54:09.950,0,-0.139,-0.077,1.007
2026-09-03 15:54:10.055,0,-0.138,-0.077,1.006
2026-09-03 15:54:10.157,0,-0.138,-0.077,1.006
2026-09-03 15:54:10.260,0,-0.138,-0.077,1.006
2026-09-03 15:54:10.362,0,-0.138,-0.077,1.006
2026-09-03 15:54:10.467,0,-0.138,-0.077,1.006
2026-09-03 15:54:10.570,0,-0.139,-0.077,1.006
2026-09-03 15:54:10.673,0,-0.139,-0.077,1.007
2026-09-03 15:54:10.775,0,-0.138,-0.077,1.006
2026-09-03 15:54:10.877,0,-0.138,-0.077,1.006
2026-09-03 15:54:10.985,0,-0.138,-0.077,1.006
2026-09-03 15:54:11.087,0,-0.138,-0.077,1.006
2026-09-03 15:54:11.191,0,-0.138,-0.077,1.006
2026-09-03 15:54:11.295,0,-0.139,-0.077,1.006
2026-09-03 15:54:11.398,0,-0.139,-0.077,1.007
2026-09-03 15:54:11.499,0,-0.139,-0.077,1.007
2026-09-03 15:54:11.604,0,-0.139,-0.077,1.007
2026-09-03 15:54:11.708,0,-0.138,-0.077,1.007
2026-09-03 15:54:11.814,0,-0.138,-0.077,1.006
2026-09-03 15:54:11.917,0,-0.138,-0.077,1.006
2026-09-03 15:54:12.021,0,-0.138,-0.077,1.006
2026-09-03 15:54:12.127,0,-0.138,-0.077,1.006
2026-09-03 15:54:12.231,0,-0.138,-0.077,1.006
2026-09-03 15:54:12.334,0,-0.138,-0.078,1.007
2026-09-03 15:54:12.440,0,-0.138,-0.078,1.007
2026-09-03 15:54:12.542,0,-0.138,-0.078,1.007
2026-09-03 15:54:12.646,0,-0.139,-0.077,1.007
2026-09-03 15:54:12.750,0,-0.139,-0.078,1.007
2026-09-03 15:54:12.855,0,-0.138,-0.078,1.007
2026-09-03 15:54:12.961,0,-0.138,-0.077,1.007
2026-09-03 15:54:13.066,0,-0.138,-0.077,1.006
2026-09-03 15:54:13.169,0,-0.138,-0.078,1.006
2026-09-03 15:54:13.274,0,-0.138,-0.078,1.006
2026-09-03 15:54:13.376,0,-0.138,-0.078,1.006
2026-09-03 15:54:13.482,0,-0.138,-0.078,1.007
2026-09-03 15:54:13.583,0,-0.139,-0.078,1.007
2026-09-03 15:54:13.686,0,-0.139,-0.078,1.008
2026-09-03 15:54:13.788,0,-0.139,-0.078,1.008
2026-09-03 15:54:13.893,0,-0.139,-0.078,1.008
2026-09-03 15:54:13.993,0,-0.139,-0.078,1.008
2026-09-03 15:54:14.098,0,-0.139,-0.077,1.008
2026-09-03 15:54:14.202,0,-0.139,-0.077,1.007
2026-09-03 15:54:14.306,0,-0.138,-0.077,1.008
2026-09-03 15:54:14.407,0,-0.138,-0.077,1.007
2026-09-03 15:54:14.510,0,-0.139,-0.077,1.008
2026-09-03 15:54:14.613,0,-0.139,-0.077,1.009
2026-09-03 15:54:14.716,0,-0.139,-0.077,1.009
2026-09-03 15:54:14.820,0,-0.139,-0.078,1.008
2026-09-03 15:54:14.922,0,-0.138,-0.077,1.007
2026-09-03 15:54:15.025,1,-0.137,-0.077,1.005
2026-09-03 15:54:15.130,1,-0.137,-0.078,1.005
2026-09-03 15:54:15.231,1,-0.137,-0.078,1.006
2026-09-03 15:54:15.334,1,-0.138,-0.078,1.008
2026-09-03 15:54:15.439,1,-0.138,-0.078,1.009
2026-09-03 15:54:15.541,1,-0.138,-0.078,1.008
2026-09-03 15:54:15.643,1,-0.137,-0.078,1.006
2026-09-03 15:54:15.746,1,-0.137,-0.079,1.004
2026-09-03 15:54:15.850,1,-0.136,-0.079,1.003
2026-09-03 15:54:15.953,1,-0.137,-0.079,1.005
2026-09-03 15:54:16.056,0,-0.137,-0.078,1.005
2026-09-03 15:54:16.158,0,-0.138,-0.079,1.006
2026-09-03 15:54:16.261,0,-0.138,-0.078,1.006
2026-09-03 15:54:16.363,0,-0.138,-0.078,1.006
2026-09-03 15:54:16.466,0,-0.137,-0.078,1.005
2026-09-03 15:54:16.568,0,-0.138,-0.078,1.007
2026-09-03 15:54:16.672,0,-0.138,-0.078,1.008
2026-09-03 15:54:16.775,0,-0.138,-0.078,1.008
2026-09-03 15:54:16.878,0,-0.138,-0.077,1.008
2026-09-03 15:54:16.980,0,-0.138,-0.078,1.008
2026-09-03 15:54:17.084,0,-0.138,-0.078,1.007
2026-09-03 15:54:17.187,0,-0.138,-0.078,1.008
2026-09-03 15:54:17.289,0,-0.138,-0.077,1.008
2026-09-03 15:54:17.392,0,-0.138,-0.078,1.009
2026-09-03 15:54:17.495,0,-0.137,-0.078,1.007
2026-09-03 15:54:17.598,0,-0.137,-0.077,1.006
2026-09-03 15:54:17.701,0,-0.137,-0.077,1.005
2026-09-03 15:54:17.804,0,-0.137,-0.077,1.006
2026-09-03 15:54:17.907,0,-0.137,-0.077,1.007
2026-09-03 15:54:18.010,0,-0.138,-0.077,1.007
2026-09-03 15:54:18.153,0,-0.38,-0.077,1.007
2026-09-03 15:54:18.256,0,-0.138,-0.077,1.008
2026-09-03 15:54:18.359,0,-0.138,-0.077,1.007
2026-09-03 15:54:18.462,0,-0.138,-0.078,1.007
2026-09-03 15:54:18.565,0,-0.137,-0.078,1.006
2026-09-03 15:54:18.668,0,-0.138,-0.077,1.007
2026-09-03 15:54:18.770,0,-0.138,-0.077,1.007
2026-09-03 15:54:18.873,0,-0.138,-0.078,1.006
2026-09-03 15:54:18.976,0,-0.137,-0.077,1.006
2026-09-03 15:54:19.078,0,-0.137,-0.078,1.006
2026-09-03 15:54:19.183,0,-0.137,-0.078,1.005
2026-09-03 15:54:19.286,0,-0.137,-0.078,1.006
2026-09-03 15:54:19.389,0,-0.137,-0.078,1.007
2026-09-03 15:54:19.491,0,-0.137,-0.078,1.007
2026-09-03 15:54:19.595,0,-0.138,-0.078,1.008
2026-09-03 15:54:19.697,0,-0.138,-0.077,1.007
2026-09-03 15:54:19.803,0,-0.137,-0.078,1.006
2026-09-03 15:54:19.908,0,-0.137,-0.078,1.005
2026-09-03 15:54:20.014,0,-0.137,-0.077,1.005
2026-09-03 15:54:20.117,0,-0.137,-0.078,1.006
2026-09-03 15:54:20.218,1,-0.138,-0.078,1.007
2026-09-03 15:54:20.321,1,-0.138,-0.077,1.007
2026-09-03 15:54:20.424,1,-0.138,-0.077,1.007
2026-09-03 15:54:20.528,1,-0.137,-0.078,1.007
2026-09-03 15:54:20.631,1,-0.137,-0.078,1.007
2026-09-03 15:54:20.733,1,-0.137,-0.078,1.007
2026-09-03 15:54:20.839,1,-0.137,-0.078,1.007
2026-09-03 15:54:20.940,1,-0.137,-0.078,1.007
2026-09-03 15:54:21.044,1,-0.137,-0.078,1.007
2026-09-03 15:54:21.146,1,-0.137,-0.078,1.007
2026-09-03 15:54:21.250,0,-0.137,-0.078,1.007
2026-09-03 15:54:21.353,0,-0.137,-0.078,1.007
2026-09-03 15:54:21.456,0,-0.137,-0.078,1.007
2026-09-03 15:54:21.559,0,-0.137,-0.077,1.007
2026-09-03 15:54:21.665,0,-0.137,-0.078,1.006
2026-09-03 15:54:21.768,0,-0.137,-0.078,1.007
2026-09-03 15:54:21.869,0,-0.137,-0.078,1.007
2026-09-03 15:54:21.973,0,-0.138,-0.078,1.006
2026-09-03 15:54:22.076,0,-0.138,-0.078,1.007
2026-09-03 15:54:22.179,0,-0.138,-0.078,1.006
2026-09-03 15:54:22.284,0,-0.138,-0.078,1.006
2026-09-03 15:54:22.389,0,-0.138,-0.078,1.006
2026-09-03 15:54:22.494,0,-0.137,-0.079,1.007
2026-09-03 15:54:22.598,0,-0.137,-0.079,1.007
2026-09-03 15:54:22.703,0,-0.137,-0.078,1.010
2026-09-03 15:54:22.807,0,-0.137,-0.078,1.008
2026-09-03 15:54:22.912,0,-0.136,-0.079,1.008
2026-09-03 15:54:23.021,0,-0.137,-0.078,1.007
2026-09-03 15:54:23.124,0,-0.136,-0.078,1.006
2026-09-03 15:54:23.230,0,-0.137,-0.078,1.005
2026-09-03 15:54:23.336,0,-0.137,-0.078,1.006
2026-09-03 15:54:23.439,0,-0.137,-0.078,1.006
2026-09-03 15:54:23.544,0,-0.137,-0.077,1.006
2026-09-03 15:54:23.651,0,-0.137,-0.078,1.006
2026-09-03 15:54:23.755,0,-0.137,-0.078,1.006
2026-09-03 15:54:23.859,0,-0.137,-0.078,1.006
2026-09-03 15:54:23.966,0,-0.137,-0.078,1.007
2026-09-03 15:54:24.070,0,-0.137,-0.078,1.007
2026-09-03 15:54:24.174,0,-0.137,-0.078,1.006
2026-09-03 15:54:24.278,0,-0.132,-0.063,1.007
2026-09-03 15:54:24.384,1,-0.115,-0.077,1.008
2026-09-03 15:54:24.488,1,-0.097,-0.098,1.017
2026-09-03 15:54:24.593,1,-0.107,-0.101,1.054
2026-09-03 15:54:24.697,1,-0.134,-0.093,1.074
2026-09-03 15:54:24.801,1,-0.178,-0.113,1.047
2026-09-03 15:54:24.906,1,-0.260,-0.095,1.005
2026-09-03 15:54:25.011,1,-0.358,-0.070,0.953
2026-09-03 15:54:25.114,1,-0.441,-0.057,0.895
2026-09-03 15:54:25.215,1,-0.499,-0.057,0.831
2026-09-03 15:54:25.320,1,-0.574,-0.031,0.832
2026-09-03 15:54:25.426,0,-0.607,0.008,0.810
2026-09-03 15:54:25.531,0,-0.622,0.055,0.794
2026-09-03 15:54:25.636,0,-0.609,0.096,0.771
2026-09-03 15:54:25.739,0,-0.598,0.128,0.773
2026-09-03 15:54:25.844,0,-0.542,0.155,0.784
2026-09-03 15:54:25.948,0,-0.498,0.193,0.827
2026-09-03 15:54:26.051,0,-0.454,0.233,0.863
2026-09-03 15:54:26.156,0,-0.409,0.259,0.886
2026-09-03 15:54:26.261,0,-0.343,0.228,0.918
2026-09-03 15:54:26.365,0,-0.274,0.182,0.917
2026-09-03 15:54:26.468,0,-0.191,0.120,0.925
2026-09-03 15:54:26.573,0,-0.082,0.034,0.961
2026-09-03 15:54:26.676,0,0.013,-0.023,0.999
2026-09-03 15:54:26.779,0,0.099,-0.017,1.026
2026-09-03 15:54:26.883,0,0.169,-0.024,1.044
2026-09-03 15:54:26.987,0,0.233,-0.080,1.038
2026-09-03 15:54:27.092,0,0.266,-0.147,0.988
2026-09-03 15:54:27.198,0,0.292,-0.213,0.949
2026-09-03 15:54:27.301,0,0.288,-0.246,0.930
2026-09-03 15:54:27.407,0,0.270,-0.193,0.931
2026-09-03 15:54:27.510,0,0.228,-0.053,0.941
2026-09-03 15:54:27.613,0,0.199,0.135,0.951
2026-09-03 15:54:27.718,0,0.178,0.295,0.938
2026-09-03 15:54:27.823,0,0.170,0.414,0.906
2026-09-03 15:54:27.925,0,0.194,0.473,0.891
2026-09-03 15:54:28.028,0,0.210,0.448,0.896
2026-09-03 15:54:28.131,0,0.179,0.391,0.895
2026-09-03 15:54:28.232,0,0.113,0.334,0.847
2026-09-03 15:54:28.337,0,0.075,0.310,0.855
2026-09-03 15:54:28.443,0,0.065,0.314,0.869
2026-09-03 15:54:28.546,0,0.064,0.299,0.877
2026-09-03 15:54:28.651,0,0.111,0.275,0.917
2026-09-03 15:54:28.756,0,0.160,0.271,1.017
2026-09-03 15:54:28.861,0,0.174,0.201,1.034
2026-09-03 15:54:28.965,0,0.145,0.074,1.032
2026-09-03 15:54:29.070,0,0.124,0.030,1.019
2026-09-03 15:54:29.173,0,0.091,0.012,1.007
2026-09-03 15:54:29.279,0,0.086,-0.020,0.991
2026-09-03 15:54:29.382,0,0.086,-0.005,1.002
2026-09-03 15:54:29.484,0,0.079,0.032,1.004
2026-09-03 15:54:29.588,1,0.077,0.036,1.014
2026-09-03 15:54:29.692,1,0.076,0.033,1.015
2026-09-03 15:54:29.797,1,0.076,0.033,1.015
2026-09-03 15:54:29.902,1,0.076,0.033,1.015
2026-09-03 15:54:30.009,1,0.076,0.033,1.015
2026-09-03 15:54:30.112,1,0.076,0.032,1.015
2026-09-03 15:54:30.217,1,0.076,0.032,1.015
2026-09-03 15:54:30.320,1,0.076,0.032,1.015
2026-09-03 15:54:30.425,1,0.076,0.032,1.015
2026-09-03 15:54:30.529,1,0.076,0.033,1.015
2026-09-03 15:54:30.631,0,0.076,0.032,1.016
2026-09-03 15:54:30.737,0,0.076,0.032,1.015
2026-09-03 15:54:30.839,0,0.076,0.032,1.015
2026-09-03 15:54:30.944,0,0.076,0.032,1.015
2026-09-03 15:54:31.047,0,0.076,0.031,1.015
2026-09-03 15:54:31.150,0,0.076,0.032,1.015
2026-09-03 15:54:31.255,0,0.076,0.032,1.015
2026-09-03 15:54:31.359,0,0.076,0.032,1.015
2026-09-03 15:54:31.463,0,0.076,0.032,1.015
2026-09-03 15:54:31.569,0,0.076,0.032,1.016
2026-09-03 15:54:31.673,0,0.076,0.032,1.015
2026-09-03 15:54:31.778,0,0.076,0.032,1.015
2026-09-03 15:54:31.884,0,0.076,0.032,1.015
2026-09-03 15:54:31.988,0,0.076,0.032,1.015
2026-09-03 15:54:32.094,0,0.076,0.032,1.015
2026-09-03 15:54:32.197,0,0.076,0.033,1.015
2026-09-03 15:54:32.299,0,0.076,0.032,1.015
2026-09-03 15:54:32.403,0,0.076,0.032,1.015
2026-09-03 15:54:32.507,0,0.076,0.032,1.015
2026-09-03 15:54:32.611,0,0.076,0.032,1.017
2026-09-03 15:54:32.714,0,0.076,0.032,1.017
2026-09-03 15:54:32.818,0,0.076,0.032,1.017
2026-09-03 15:54:32.922,0,0.076,0.032,1.016
2026-09-03 15:54:33.024,0,0.076,0.032,1.016
2026-09-03 15:54:33.128,0,0.076,0.032,1.015
2026-09-03 15:54:33.231,0,0.076,0.032,1.014
2026-09-03 15:54:33.335,0,0.076,0.032,1.015
2026-09-03 15:54:33.438,0,0.076,0.032,1.016
2026-09-03 15:54:33.541,0,0.076,0.032,1.015
2026-09-03 15:54:33.646,0,0.076,0.032,1.015
2026-09-03 15:54:33.749,0,0.076,0.032,1.015
2026-09-03 15:54:33.851,0,0.076,0.032,1.015
2026-09-03 15:54:33.956,0,0.076,0.032,1.014
2026-09-03 15:54:34.060,0,0.076,0.032,1.015
2026-09-03 15:54:34.161,0,0.076,0.032,1.015
2026-09-03 15:54:34.263,0,0.076,0.032,1.015
2026-09-03 15:54:34.366,0,0.076,0.032,1.015
2026-09-03 15:54:34.469,0,0.076,0.032,1.015
2026-09-03 15:54:34.572,0,0.076,0.032,1.016
2026-09-03 15:54:34.676,0,0.076,0.032,1.016
2026-09-03 15:54:34.778,1,0.076,0.032,1.016
2026-09-03 15:54:34.880,1,0.076,0.032,1.015
2026-09-03 15:54:34.985,1,0.076,0.032,1.014
2026-09-03 15:54:35.089,1,0.076,0.032,1.014
2026-09-03 15:54:35.192,1,0.076,0.032,1.015
2026-09-03 15:54:35.293,1,0.076,0.032,1.015
2026-09-03 15:54:35.398,1,0.076,0.032,1.015
2026-09-03 15:54:35.501,1,0.076,0.031,1.015
2026-09-03 15:54:35.605,1,0.076,0.032,1.015
2026-09-03 15:54:35.709,1,0.076,0.032,1.015
2026-09-03 15:54:35.812,0,0.076,0.032,1.015
2026-09-03 15:54:35.915,0,0.076,0.032,1.015
2026-09-03 15:54:36.016,0,0.076,0.032,1.015
2026-09-03 15:54:36.118,0,0.075,0.031,1.015
2026-09-03 15:54:36.221,0,0.076,0.032,1.015
2026-09-03 15:54:36.324,0,0.076,0.032,1.015
2026-09-03 15:54:36.427,0,0.076,0.032,1.015
2026-09-03 15:54:36.529,0,0.076,0.032,1.015
2026-09-03 15:54:36.633,0,0.076,0.032,1.015
2026-09-03 15:54:36.735,0,0.076,0.032,1.015
2026-09-03 15:54:36.838,0,0.076,0.032,1.015
2026-09-03 15:54:36.941,0,0.076,0.032,1.015
2026-09-03 15:54:37.043,0,0.076,0.032,1.015
2026-09-03 15:54:37.146,0,0.076,0.032,1.015
2026-09-03 15:54:37.249,0,0.076,0.032,1.016
2026-09-03 15:54:37.351,0,0.076,0.032,1.016
2026-09-03 15:54:37.454,0,0.076,0.032,1.016
2026-09-03 15:54:37.558,0,0.076,0.031,1.015
2026-09-03 15:54:37.659,0,0.076,0.031,1.015
2026-09-03 15:54:37.762,0,0.076,0.031,1.015
2026-09-03 15:54:37.865,0,0.076,0.032,1.015
2026-09-03 15:54:37.967,0,0.076,0.031,1.016
2026-09-03 15:54:38.070,0,0.076,0.031,1.016
2026-09-03 15:54:38.173,0,0.076,0.032,1.016
2026-09-03 15:54:38.276,0,0.076,0.032,1.015
2026-09-03 15:54:38.379,0,0.076,0.031,1.014
2026-09-03 15:54:38.481,0,0.076,0.031,1.014
2026-09-03 15:54:38.584,0,0.076,0.032,1.014
2026-09-03 15:54:38.686,0,0.076,0.031,1.014
2026-09-03 15:54:38.790,0,0.076,0.032,1.014
2026-09-03 15:54:38.893,0,0.076,0.032,1.015
2026-09-03 15:54:38.996,0,0.076,0.032,1.015
2026-09-03 15:54:39.099,0,0.075,0.032,1.015
2026-09-03 15:54:39.201,0,0.075,0.032,1.015
2026-09-03 15:54:39.304,0,0.075,0.031,1.015
2026-09-03 15:54:39.407,0,0.076,0.032,1.014
2026-09-03 15:54:39.509,0,0.076,0.031,1.014
2026-09-03 15:54:39.612,0,0.076,0.031,1.014
2026-09-03 15:54:39.716,0,0.076,0.031,1.015
2026-09-03 15:54:39.818,0,0.076,0.031,1.015
2026-09-03 15:54:39.921,0,0.076,0.031,1.015
2026-09-03 15:54:40.024,0,0.076,0.032,1.015
2026-09-03 15:54:40.128,0,0.076,0.031,1.015
2026-09-03 15:54:40.230,0,0.076,0.031,1.015
2026-09-03 15:54:40.336,0,0.076,0.031,1.015
2026-09-03 15:54:40.441,0,0.076,0.031,1.015
2026-09-03 15:54:40.543,0,0.076,0.031,1.016
2026-09-03 15:54:40.646,0,0.076,0.031,1.016
2026-09-03 15:54:40.749,0,0.076,0.032,1.016
2026-09-03 15:54:40.852,0,0.076,0.032,1.016
2026-09-03 15:54:40.955,0,0.076,0.032,1.016
2026-09-03 15:54:41.058,0,0.076,0.032,1.015
2026-09-03 15:54:41.160,0,0.076,0.032,1.015
2026-09-03 15:54:41.263,0,0.076,0.032,1.015
2026-09-03 15:54:41.367,0,0.076,0.032,1.015
2026-09-03 15:54:41.471,0,0.076,0.031,1.015
2026-09-03 15:54:41.573,0,0.076,0.032,1.015
2026-09-03 15:54:41.679,0,0.076,0.032,1.015
2026-09-03 15:54:41.781,0,0.076,0.031,1.015
2026-09-03 15:54:41.884,0,0.076,0.031,1.015
2026-09-03 15:54:41.986,0,0.076,0.031,1.015
2026-09-03 15:54:42.088,0,0.076,0.031,1.015
2026-09-03 15:54:42.192,0,0.076,0.031,1.015
2026-09-03 15:54:42.296,0,0.076,0.031,1.015
2026-09-03 15:54:42.398,0,0.076,0.031,1.015
2026-09-03 15:54:42.501,0,0.076,0.032,1.015
2026-09-03 15:54:42.603,0,0.076,0.032,1.015
2026-09-03 15:54:42.706,0,0.076,0.032,1.015
2026-09-03 15:54:42.809,0,0.076,0.032,1.015
2026-09-03 15:54:42.912,0,0.076,0.032,1.015
2026-09-03 15:54:43.016,0,0.076,0.032,1.015
2026-09-03 15:54:43.118,0,0.076,0.032,1.015
2026-09-03 15:54:43.223,0,0.076,0.032,1.015
2026-09-03 15:54:43.325,0,0.076,0.032,1.016
2026-09-03 15:54:43.429,0,0.076,0.031,1.015
2026-09-03 15:54:43.534,0,0.076,0.032,1.015
2026-09-03 15:54:43.636,0,0.076,0.032,1.015
2026-09-03 15:54:43.739,0,0.076,0.032,1.015
2026-09-03 15:54:43.842,0,0.076,0.031,1.015
2026-09-03 15:54:43.944,0,0.076,0.031,1.015
2026-09-03 15:54:44.048,0,0.076,0.031,1.016
2026-09-03 15:54:44.151,0,0.076,0.031,1.015
2026-09-03 15:54:44.253,0,0.076,0.031,1.015
2026-09-03 15:54:44.357,0,0.076,0.031,1.014
2026-09-03 15:54:44.460,0,0.076,0.032,1.014
2026-09-03 15:54:44.562,0,0.076,0.032,1.014
2026-09-03 15:54:44.665,0,0.076,0.032,1.014
2026-09-03 15:54:44.768,0,0.076,0.032,1.015
2026-09-03 15:54:44.870,0,0.076,0.032,1.015
2026-09-03 15:54:44.973,0,0.076,0.032,1.016
2026-09-03 15:54:45.076,0,0.075,0.031,1.015
2026-09-03 15:54:45.178,0,0.076,0.031,1.015
2026-09-03 15:54:45.282,0,0.076,0.032,1.015
2026-09-03 15:54:45.384,0,0.076,0.032,1.015
2026-09-03 15:54:45.487,0,0.076,0.032,1.015
2026-09-03 15:54:45.591,0,0.076,0.032,1.015
2026-09-03 15:54:45.693,0,0.076,0.032,1.015
2026-09-03 15:54:45.796,0,0.076,0.032,1.015
2026-09-03 15:54:45.900,0,0.076,0.032,1.015
2026-09-03 15:54:46.004,0,0.076,0.032,1.015
2026-09-03 15:54:46.107,0,0.076,0.032,1.015
2026-09-03 15:54:46.211,0,0.076,0.031,1.015
2026-09-03 15:54:46.315,0,0.076,0.031,1.015
2026-09-03 15:54:46.422,0,0.076,0.031,1.015
2026-09-03 15:54:46.526,0,0.076,0.031,1.015
2026-09-03 15:54:46.631,0,0.076,0.031,1.015
2026-09-03 15:54:46.734,0,0.076,0.031,1.015
2026-09-03 15:54:46.836,0,0.076,0.031,1.015
2026-09-03 15:54:46.939,0,0.076,0.032,1.015
2026-09-03 15:54:47.042,0,0.076,0.031,1.015
2026-09-03 15:54:47.145,0,0.076,0.031,1.015
2026-09-03 15:54:47.249,0,0.076,0.031,1.015
2026-09-03 15:54:47.352,0,0.076,0.031,1.015
2026-09-03 15:54:47.455,0,0.076,0.031,1.015
2026-09-03 15:54:47.557,0,0.076,0.031,1.015
2026-09-03 15:54:47.661,0,0.076,0.031,1.015
2026-09-03 15:54:47.762,0,0.076,0.031,1.015
2026-09-03 15:54:47.866,0,0.076,0.031,1.015
2026-09-03 15:54:47.968,0,0.076,0.031,1.015
2026-09-03 15:54:48.071,0,0.076,0.031,1.014
2026-09-03 15:54:48.176,0,0.076,0.031,1.015
2026-09-03 15:54:48.279,0,0.076,0.031,1.015
2026-09-03 15:54:48.383,0,0.075,0.031,1.015
2026-09-03 15:54:48.488,0,0.076,0.031,1.015
2026-09-03 15:54:48.592,0,0.076,0.031,1.015
2026-09-03 15:54:48.695,0,0.076,0.031,1.015
2026-09-03 15:54:48.802,0,0.076,0.031,1.015
2026-09-03 15:54:48.904,0,0.076,0.031,1.015
2026-09-03 15:54:49.008,0,0.076,0.031,1.016
2026-09-03 15:54:49.110,0,0.076,0.032,1.016
2026-09-03 15:54:49.212,0,0.076,0.032,1.015
2026-09-03 15:54:49.315,0,0.076,0.031,1.015
2026-09-03 15:54:49.418,0,0.076,0.032,1.015
2026-09-03 15:54:49.521,0,0.076,0.032,1.015
2026-09-03 15:54:49.624,0,0.076,0.032,1.015
2026-09-03 15:54:49.726,0,0.076,0.031,1.015
2026-09-03 15:54:49.829,0,0.076,0.032,1.014
2026-09-03 15:54:49.932,0,0.076,0.031,1.014
2026-09-03 15:54:50.035,0,0.076,0.032,1.015
2026-09-03 15:54:50.138,0,0.076,0.032,1.016
2026-09-03 15:54:50.240,0,0.076,0.032,1.016
2026-09-03 15:54:50.344,0,0.076,0.031,1.016
2026-09-03 15:54:50.448,0,0.076,0.031,1.015
2026-09-03 15:54:50.552,0,0.076,0.031,1.015
2026-09-03 15:54:50.656,0,0.076,0.031,1.015
2026-09-03 15:54:50.759,0,0.076,0.031,1.015
2026-09-03 15:54:50.861,0,0.076,0.032,1.015
2026-09-03 15:54:50.964,0,0.076,0.031,1.015
2026-09-03 15:54:51.069,0,0.076,0.031,1.014
2026-09-03 15:54:51.172,0,0.076,0.032,1.014
2026-09-03 15:54:51.274,0,0.076,0.031,1.014
2026-09-03 15:54:51.377,0,0.076,0.031,1.014
2026-09-03 15:54:51.480,0,0.076,0.031,1.015
2026-09-03 15:54:51.583,0,0.076,0.031,1.015
2026-09-03 15:54:51.686,0,0.076,0.031,1.016
2026-09-03 15:54:51.788,0,0.076,0.031,1.015
2026-09-03 15:54:51.891,0,0.076,0.032,1.015
2026-09-03 15:54:51.994,0,0.076,0.032,1.014
2026-09-03 15:54:52.097,0,0.076,0.031,1.014
2026-09-03 15:54:52.201,0,0.076,0.031,1.014
2026-09-03 15:54:52.303,0,0.076,0.032,1.015
2026-09-03 15:54:52.406,0,0.076,0.031,1.016
2026-09-03 15:54:52.508,0,0.076,0.031,1.016
2026-09-03 15:54:52.613,0,0.076,0.032,1.016
2026-09-03 15:54:52.715,0,0.076,0.031,1.017
2026-09-03 15:54:52.818,0,0.076,0.031,1.017
2026-09-03 15:54:52.922,0,0.076,0.031,1.017
2026-09-03 15:54:53.026,0,0.076,0.031,1.017
2026-09-03 15:54:53.127,0,0.076,0.031,1.016
2026-09-03 15:54:53.232,0,0.076,0.031,1.015
2026-09-03 15:54:53.335,0,0.076,0.031,1.015
2026-09-03 15:54:53.437,0,0.076,0.031,1.014
2026-09-03 15:54:53.539,0,0.076,0.031,1.015
2026-09-03 15:54:53.642,0,0.075,0.031,1.015
2026-09-03 15:54:53.747,0,0.076,0.031,1.016
2026-09-03 15:54:53.850,0,0.076,0.031,1.015
2026-09-03 15:54:53.950,0,0.076,0.031,1.014
2026-09-03 15:54:54.054,0,0.076,0.031,1.014
2026-09-03 15:54:54.157,0,0.076,0.031,1.014
2026-09-03 15:54:54.260,0,0.076,0.031,1.014
2026-09-03 15:54:54.363,0,0.075,0.031,1.015
2026-09-03 15:54:54.468,0,0.075,0.031,1.015
2026-09-03 15:54:54.574,0,0.075,0.031,1.015
2026-09-03 15:54:54.676,0,0.075,0.031,1.014
2026-09-03 15:54:54.780,0,0.075,0.031,1.014
2026-09-03 15:54:54.882,0,0.076,0.031,1.014
2026-09-03 15:54:54.984,0,0.075,0.031,1.014
2026-09-03 15:54:55.087,0,0.075,0.031,1.014
2026-09-03 15:54:55.189,0,0.076,0.031,1.015
2026-09-03 15:54:55.291,0,0.076,0.031,1.015
2026-09-03 15:54:55.395,0,0.076,0.031,1.015
2026-09-03 15:54:55.496,0,0.076,0.031,1.015
2026-09-03 15:54:55.599,0,0.076,0.031,1.014
2026-09-03 15:54:55.702,0,0.076,0.031,1.014
2026-09-03 15:54:55.805,0,0.076,0.031,1.014
2026-09-03 15:54:55.907,0,0.076,0.031,1.014
2026-09-03 15:54:56.010,0,0.076,0.031,1.014
2026-09-03 15:54:56.113,0,0.075,0.031,1.015
2026-09-03 15:54:56.216,0,0.076,0.031,1.015
2026-09-03 15:54:56.318,0,0.076,0.030,1.015
2026-09-03 15:54:56.421,1,0.070,0.026,1.009
2026-09-03 15:54:56.523,1,0.071,0.022,1.004
2026-09-03 15:54:56.625,1,0.069,0.016,1.004
2026-09-03 15:54:56.728,1,0.068,0.010,1.005
2026-09-03 15:54:56.830,1,0.066,0.006,1.005
2026-09-03 15:54:56.934,1,0.070,0.003,1.013
2026-09-03 15:54:57.037,1,0.069,0.009,1.016
2026-09-03 15:54:57.139,1,0.070,0.006,1.016
2026-09-03 15:54:57.242,1,0.072,0.018,1.016
2026-09-03 15:54:57.344,1,0.071,0.017,1.015
2026-09-03 15:54:57.447,0,0.072,0.018,1.014
2026-09-03 15:54:57.549,0,0.072,0.014,1.015
2026-09-03 15:54:57.651,0,0.071,0.020,1.016
2026-09-03 15:54:57.754,0,0.071,0.012,1.016
2026-09-03 15:54:57.856,0,0.072,0.014,1.018
2026-09-03 15:54:57.960,0,0.073,0.020,1.017
2026-09-03 15:54:58.062,0,0.073,0.022,1.018
2026-09-03 15:54:58.165,0,0.073,0.024,1.017
2026-09-03 15:54:58.267,0,0.074,0.025,1.017
2026-09-03 15:54:58.371,0,0.074,0.027,1.016
2026-09-03 15:54:58.474,0,0.074,0.028,1.016
2026-09-03 15:54:58.576,0,0.074,0.027,1.016
2026-09-03 15:54:58.678,0,0.074,0.027,1.016
2026-09-03 15:54:58.781,0,0.074,0.027,1.016
2026-09-03 15:54:58.884,0,0.074,0.027,1.016
2026-09-03 15:54:58.987,0,0.074,0.027,1.016
2026-09-03 15:54:59.090,0,0.074,0.028,1.017
2026-09-03 15:54:59.192,0,0.073,0.028,1.016
2026-09-03 15:54:59.295,0,0.073,0.028,1.016
2026-09-03 15:54:59.397,0,0.073,0.028,1.016
2026-09-03 15:54:59.500,0,0.073,0.028,1.016
2026-09-03 15:54:59.602,0,0.073,0.027,1.015
2026-09-03 15:54:59.706,0,0.074,0.028,1.015
2026-09-03 15:54:59.807,0,0.074,0.028,1.015
2026-09-03 15:54:59.912,0,0.074,0.028,1.014
2026-09-03 15:55:00.014,0,0.074,0.028,1.014
2026-09-03 15:55:00.117,0,0.074,0.028,1.014
2026-09-03 15:55:00.221,0,0.074,0.028,1.014
2026-09-03 15:55:00.323,0,0.074,0.028,1.015
2026-09-03 15:55:00.425,0,0.074,0.028,1.015
2026-09-03 15:55:00.529,0,0.074,0.028,1.015
2026-09-03 15:55:00.633,0,0.074,0.028,1.015
2026-09-03 15:55:00.737,0,0.074,0.028,1.016
2026-09-03 15:55:00.839,0,0.074,0.028,1.016
2026-09-03 15:55:00.944,0,0.074,0.028,1.016
2026-09-03 15:55:01.046,0,0.074,0.028,1.016
2026-09-03 15:55:01.147,0,0.074,0.028,1.016
2026-09-03 15:55:01.250,0,0.074,0.028,1.015
2026-09-03 15:55:01.355,0,0.074,0.028,1.015
2026-09-03 15:55:01.459,0,0.074,0.027,1.015
2026-09-03 15:55:01.559,0,0.074,0.028,1.016
2026-09-03 15:55:01.665,0,0.074,0.028,1.016
2026-09-03 15:55:01.768,0,0.074,0.028,1.016
2026-09-03 15:55:01.872,0,0.074,0.028,1.016
2026-09-03 15:55:01.977,0,0.074,0.028,1.016
2026-09-03 15:55:02.079,0,0.074,0.028,1.016
2026-09-03 15:55:02.181,0,0.074,0.029,1.016
2026-09-03 15:55:02.284,0,0.074,0.029,1.017
2026-09-03 15:55:02.388,0,0.074,0.028,1.017
2026-09-03 15:55:02.493,0,0.074,0.028,1.017
2026-09-03 15:55:02.595,1,0.074,0.028,1.016
2026-09-03 15:55:02.697,1,0.074,0.028,1.016
2026-09-03 15:55:02.801,1,0.074,0.028,1.016
2026-09-03 15:55:02.902,1,0.074,0.028,1.016
2026-09-03 15:55:03.005,1,0.074,0.028,1.016
2026-09-03 15:55:03.109,1,0.074,0.028,1.016
2026-09-03 15:55:03.213,1,0.074,0.028,1.015
2026-09-03 15:55:03.317,1,0.074,0.028,1.015
2026-09-03 15:55:03.419,1,0.075,0.030,1.015
2026-09-03 15:55:03.521,1,0.075,0.030,1.015
2026-09-03 15:55:03.625,0,0.075,0.030,1.015
2026-09-03 15:55:03.729,0,0.074,0.030,1.014
2026-09-03 15:55:03.831,0,0.074,0.031,1.015
2026-09-03 15:55:03.934,0,0.074,0.029,1.015
2026-09-03 15:55:04.039,0,0.074,0.030,1.014
2026-09-03 15:55:04.139,0,0.074,0.029,1.013
2026-09-03 15:55:04.242,0,0.074,0.029,1.014
2026-09-03 15:55:04.347,0,0.074,0.029,1.014
2026-09-03 15:55:04.452,0,0.074,0.029,1.015
2026-09-03 15:55:04.558,0,0.074,0.028,1.016
2026-09-03 15:55:04.662,0,0.074,0.028,1.016
2026-09-03 15:55:04.766,0,0.074,0.028,1.016
2026-09-03 15:55:04.869,0,0.074,0.028,1.016
2026-09-03 15:55:04.972,0,0.074,0.028,1.015
2026-09-03 15:55:05.074,0,0.074,0.028,1.015
2026-09-03 15:55:05.177,0,0.074,0.028,1.015
2026-09-03 15:55:05.279,0,0.074,0.028,1.016
2026-09-03 15:55:05.383,0,0.074,0.028,1.016
2026-09-03 15:55:05.486,0,0.074,0.028,1.016
2026-09-03 15:55:05.590,0,0.074,0.028,1.015
2026-09-03 15:55:05.692,0,0.074,0.028,1.016
2026-09-03 15:55:05.795,0,0.074,0.028,1.015
2026-09-03 15:55:05.901,0,0.074,0.028,1.015
2026-09-03 15:55:06.004,0,0.074,0.028,1.016
2026-09-03 15:55:06.107,0,0.074,0.028,1.016
2026-09-03 15:55:06.210,0,0.074,0.028,1.016
2026-09-03 15:55:06.312,0,0.074,0.028,1.015
2026-09-03 15:55:06.416,0,0.074,0.028,1.015
2026-09-03 15:55:06.519,0,0.074,0.028,1.015
2026-09-03 15:55:06.623,0,0.074,0.028,1.015
2026-09-03 15:55:06.726,0,0.074,0.028,1.015
2026-09-03 15:55:06.828,0,0.073,0.028,1.015
2026-09-03 15:55:06.932,0,0.073,0.028,1.016
2026-09-03 15:55:07.034,0,0.074,0.028,1.016
2026-09-03 15:55:07.137,0,0.074,0.028,1.015
2026-09-03 15:55:07.241,0,0.074,0.028,1.015
2026-09-03 15:55:07.343,0,0.074,0.028,1.015
2026-09-03 15:55:07.447,0,0.074,0.028,1.015
2026-09-03 15:55:07.550,0,0.074,0.028,1.015
2026-09-03 15:55:07.654,0,0.074,0.029,1.015
2026-09-03 15:55:07.756,0,0.074,0.029,1.015
2026-09-03 15:55:07.861,0,0.074,0.028,1.015
2026-09-03 15:55:07.966,0,0.074,0.028,1.015
2026-09-03 15:55:08.070,0,0.074,0.029,1.015
2026-09-03 15:55:08.174,0,0.074,0.028,1.015
2026-09-03 15:55:08.276,0,0.074,0.028,1.015
2026-09-03 15:55:08.379,0,0.074,0.029,1.015
2026-09-03 15:55:08.483,0,0.074,0.029,1.015
2026-09-03 15:55:08.587,0,0.074,0.028,1.016
2026-09-03 15:55:08.691,0,0.074,0.029,1.016
2026-09-03 15:55:08.795,0,0.074,0.029,1.016
2026-09-03 15:55:08.899,0,0.074,0.028,1.016
2026-09-03 15:55:09.004,0,0.074,0.029,1.016
2026-09-03 15:55:09.110,0,0.074,0.029,1.016
2026-09-03 15:55:09.214,0,0.074,0.028,1.015
2026-09-03 15:55:09.318,0,0.074,0.029,1.015
2026-09-03 15:55:09.422,0,0.074,0.029,1.016
2026-09-03 15:55:09.527,0,0.074,0.029,1.015
2026-09-03 15:55:09.632,0,0.074,0.029,1.015
2026-09-03 15:55:09.736,0,0.074,0.028,1.014
2026-09-03 15:55:09.838,1,0.074,0.028,1.015
2026-09-03 15:55:09.942,1,0.074,0.028,1.015
2026-09-03 15:55:10.047,1,0.074,0.028,1.015
2026-09-03 15:55:10.152,1,0.074,0.028,1.016
2026-09-03 15:55:10.257,1,0.074,0.028,1.016
2026-09-03 15:55:10.361,1,0.074,0.028,1.016
2026-09-03 15:55:10.467,1,0.074,0.028,1.016
2026-09-03 15:55:10.569,1,0.074,0.028,1.017
2026-09-03 15:55:10.676,1,0.074,0.028,1.017
2026-09-03 15:55:10.783,1,0.074,0.028,1.017
2026-09-03 15:55:10.887,0,0.074,0.028,1.016
2026-09-03 15:55:10.990,0,0.074,0.028,1.016
2026-09-03 15:55:11.092,0,0.074,0.028,1.016
2026-09-03 15:55:11.195,0,0.074,0.028,1.016
2026-09-03 15:55:11.299,0,0.074,0.028,1.016
2026-09-03 15:55:11.401,0,0.074,0.028,1.016
2026-09-03 15:55:11.505,0,0.074,0.028,1.016
2026-09-03 15:55:11.608,0,0.074,0.028,1.015
2026-09-03 15:55:11.711,0,0.074,0.028,1.015
2026-09-03 15:55:11.813,0,0.074,0.029,1.015
2026-09-03 15:55:11.916,0,0.074,0.028,1.015
2026-09-03 15:55:12.018,0,0.074,0.028,1.015
2026-09-03 15:55:12.121,0,0.074,0.028,1.016
2026-09-03 15:55:12.224,0,0.074,0.029,1.015
2026-09-03 15:55:12.329,0,0.074,0.028,1.015
2026-09-03 15:55:12.430,0,0.074,0.029,1.015
2026-09-03 15:55:12.532,0,0.074,0.028,1.015
2026-09-03 15:55:12.635,0,0.074,0.029,1.015
2026-09-03 15:55:12.737,0,0.074,0.029,1.015
2026-09-03 15:55:12.841,0,0.074,0.029,1.016
2026-09-03 15:55:12.943,0,0.074,0.029,1.016
2026-09-03 15:55:13.047,0,0.074,0.028,1.015
2026-09-03 15:55:13.150,0,0.074,0.028,1.015
2026-09-03 15:55:13.253,0,0.074,0.028,1.016
2026-09-03 15:55:13.359,0,0.074,0.028,1.015
2026-09-03 15:55:13.462,0,0.074,0.028,1.015
2026-09-03 15:55:13.565,0,0.074,0.028,1.016
2026-09-03 15:55:13.668,0,0.074,0.028,1.016
2026-09-03 15:55:13.771,0,0.074,0.028,1.016
2026-09-03 15:55:13.874,0,0.074,0.029,1.016
2026-09-03 15:55:13.977,0,0.074,0.028,1.015
2026-09-03 15:55:14.079,0,0.074,0.028,1.016
2026-09-03 15:55:14.182,0,0.075,0.029,1.016
2026-09-03 15:55:14.286,0,0.074,0.029,1.016
2026-09-03 15:55:14.388,0,0.074,0.029,1.016
2026-09-03 15:55:14.491,0,0.074,0.029,1.015
2026-09-03 15:55:14.594,0,0.074,0.029,1.015
2026-09-03 15:55:14.697,0,0.074,0.028,1.016
2026-09-03 15:55:14.800,0,0.074,0.028,1.016
2026-09-03 15:55:14.903,0,0.074,0.028,1.016
2026-09-03 15:55:15.007,0,0.074,0.029,1.016
2026-09-03 15:55:15.108,0,0.074,0.029,1.016
2026-09-03 15:55:15.212,0,0.074,0.029,1.015
2026-09-03 15:55:15.314,0,0.074,0.029,1.015
2026-09-03 15:55:15.416,0,0.074,0.029,1.016
2026-09-03 15:55:15.519,0,0.074,0.029,1.016
2026-09-03 15:55:15.621,0,0.074,0.029,1.015
2026-09-03 15:55:15.725,0,0.074,0.029,1.015
2026-09-03 15:55:15.828,0,0.074,0.029,1.015
2026-09-03 15:55:15.930,0,0.074,0.029,1.015
2026-09-03 15:55:16.033,0,0.074,0.029,1.015
2026-09-03 15:55:16.135,0,0.074,0.029,1.016
2026-09-03 15:55:16.239,0,0.074,0.029,1.015
2026-09-03 15:55:16.341,0,0.074,0.028,1.015
2026-09-03 15:55:16.445,0,0.074,0.028,1.015
2026-09-03 15:55:16.548,0,0.074,0.028,1.015
2026-09-03 15:55:16.653,0,0.074,0.028,1.015
2026-09-03 15:55:16.756,0,0.074,0.028,1.015
2026-09-03 15:55:16.858,0,0.074,0.028,1.015
2026-09-03 15:55:16.962,0,0.074,0.028,1.014
2026-09-03 15:55:17.068,0,0.074,0.028,1.014
2026-09-03 15:55:17.172,0,0.074,0.028,1.015
2026-09-03 15:55:17.274,0,0.074,0.028,1.015
2026-09-03 15:55:17.380,0,0.074,0.028,1.015
2026-09-03 15:55:17.484,0,0.074,0.028,1.015
2026-09-03 15:55:17.590,0,0.074,0.029,1.015
2026-09-03 15:55:17.694,0,0.074,0.029,1.015
2026-09-03 15:55:17.796,0,0.074,0.029,1.015
2026-09-03 15:55:17.898,0,0.074,0.029,1.015
2026-09-03 15:55:18.001,0,0.074,0.029,1.016
2026-09-03 15:55:18.105,1,0.074,0.029,1.015
2026-09-03 15:55:18.209,1,0.074,0.028,1.015
2026-09-03 15:55:18.311,1,0.074,0.028,1.014
2026-09-03 15:55:18.418,1,0.074,0.028,1.014
2026-09-03 15:55:18.524,1,0.072,0.011,1.020
2026-09-03 15:55:18.628,1,0.079,0.017,1.018
2026-09-03 15:55:18.735,1,0.094,0.005,1.027
2026-09-03 15:55:18.838,1,0.092,-0.001,1.046
2026-09-03 15:55:18.942,1,0.057,-0.010,1.050
2026-09-03 15:55:19.046,1,-0.017,0.001,1.056
2026-09-03 15:55:19.149,0,-0.111,-0.020,1.055
2026-09-03 15:55:19.255,0,-0.221,-0.021,1.024
2026-09-03 15:55:19.359,0,-0.332,-0.018,0.979
2026-09-03 15:55:19.463,0,-0.410,-0.020,0.938
2026-09-03 15:55:19.568,0,-0.441,-0.037,0.914
2026-09-03 15:55:19.674,0,-0.464,-0.069,0.899
2026-09-03 15:55:19.778,0,-0.488,-0.114,0.886
2026-09-03 15:55:19.882,0,-0.503,-0.162,0.859
2026-09-03 15:55:19.988,0,-0.516,-0.187,0.864
2026-09-03 15:55:20.093,0,-0.539,-0.158,0.861
2026-09-03 15:55:20.198,0,-0.558,-0.084,0.828
2026-09-03 15:55:20.304,0,-0.572,0.014,0.807
2026-09-03 15:55:20.407,0,-0.558,0.123,0.810
2026-09-03 15:55:20.512,0,-0.535,0.239,0.808
2026-09-03 15:55:20.617,0,-0.477,0.318,0.797
2026-09-03 15:55:20.722,0,-0.392,0.360,0.824
2026-09-03 15:55:20.827,0,-0.282,0.372,0.864
2026-09-03 15:55:20.930,0,-0.171,0.356,0.907
2026-09-03 15:55:21.035,0,-0.069,0.276,0.948
2026-09-03 15:55:21.141,0,0.018,0.144,0.972
2026-09-03 15:55:21.247,0,0.065,0.006,0.954
2026-09-03 15:55:21.351,0,0.099,-0.105,0.935
2026-09-03 15:55:21.455,0,0.134,-0.191,0.909
2026-09-03 15:55:21.558,0,0.184,-0.207,0.878
2026-09-03 15:55:21.661,0,0.250,-0.144,0.864
2026-09-03 15:55:21.764,0,0.363,-0.061,0.889
2026-09-03 15:55:21.866,0,0.451,0.030,0.904
2026-09-03 15:55:21.969,0,0.506,0.110,0.910
2026-09-03 15:55:22.073,0,0.540,0.151,0.913
2026-09-03 15:55:22.176,0,0.521,0.145,0.922
2026-09-03 15:55:22.279,0,0.458,0.128,0.919
2026-09-03 15:55:22.382,0,0.388,0.066,0.943
2026-09-03 15:55:22.485,0,0.305,0.009,0.982
2026-09-03 15:55:22.590,0,0.200,-0.044,1.000
2026-09-03 15:55:22.695,0,0.090,-0.101,0.997
2026-09-03 15:55:22.801,0,-0.035,-0.162,0.999
2026-09-03 15:55:22.905,0,-0.152,-0.179,0.988
2026-09-03 15:55:23.012,0,-0.243,-0.213,0.961
2026-09-03 15:55:23.117,0,-0.312,-0.232,0.953
2026-09-03 15:55:23.222,0,-0.357,-0.215,0.948
2026-09-03 15:55:23.325,1,-0.377,-0.169,0.947
2026-09-03 15:55:23.428,1,-0.390,-0.156,0.925
2026-09-03 15:55:23.533,1,-0.393,-0.145,0.930
2026-09-03 15:55:23.639,1,-0.381,-0.160,0.932
2026-09-03 15:55:23.742,1,-0.370,-0.226,0.917
2026-09-03 15:55:23.847,1,-0.377,-0.303,0.890
2026-09-03 15:55:23.951,1,-0.383,-0.365,0.866
2026-09-03 15:55:24.055,1,-0.386,-0.403,0.834
2026-09-03 15:55:24.159,1,-0.406,-0.412,0.814
2026-09-03 15:55:24.264,1,-0.402,-0.404,0.834
2026-09-03 15:55:24.369,0,-0.388,-0.364,0.850
2026-09-03 15:55:24.474,0,-0.376,-0.300,0.858
2026-09-03 15:55:24.578,0,-0.371,-0.228,0.887
2026-09-03 15:55:24.682,0,-0.369,-0.146,0.907
2026-09-03 15:55:24.785,0,-0.388,-0.053,0.904
2026-09-03 15:55:24.890,0,-0.408,0.023,0.911
2026-09-03 15:55:24.995,0,-0.417,0.101,0.912
2026-09-03 15:55:25.100,0,-0.426,0.148,0.902
2026-09-03 15:55:25.203,0,-0.433,0.171,0.887
2026-09-03 15:55:25.306,0,-0.456,0.214,0.855
2026-09-03 15:55:25.411,0,-0.477,0.251,0.825
2026-09-03 15:55:25.512,0,-0.501,0.264,0.833
2026-09-03 15:55:25.617,0,-0.531,0.273,0.829
2026-09-03 15:55:25.719,0,-0.548,0.260,0.824
2026-09-03 15:55:25.825,0,-0.561,0.211,0.812
2026-09-03 15:55:25.928,0,-0.587,0.173,0.808
2026-09-03 15:55:26.031,0,-0.620,0.128,0.780
2026-09-03 15:55:26.135,0,-0.655,0.095,0.744
2026-09-03 15:55:26.240,0,-0.701,0.066,0.709
2026-09-03 15:55:26.344,0,-0.728,0.028,0.685
2026-09-03 15:55:26.448,0,-0.726,-0.046,0.667
2026-09-03 15:55:26.550,0,-0.696,-0.120,0.673
2026-09-03 15:55:26.656,0,-0.644,-0.175,0.701
2026-09-03 15:55:26.759,0,-0.582,-0.190,0.748
2026-09-03 15:55:26.864,0,-0.504,-0.155,0.864
2026-09-03 15:55:26.969,0,-0.429,-0.112,0.937
2026-09-03 15:55:27.073,0,-0.373,-0.069,0.989
2026-09-03 15:55:27.178,0,-0.324,-0.082,1.019
2026-09-03 15:55:27.282,0,-0.271,-0.148,1.011
2026-09-03 15:55:27.385,0,-0.233,-0.229,0.957
2026-09-03 15:55:27.488,1,-0.196,-0.309,0.944
2026-09-03 15:55:27.592,1,-0.152,-0.373,0.931
2026-09-03 15:55:27.698,1,-0.118,-0.365,0.922
2026-09-03 15:55:27.803,1,-0.097,-0.298,0.948
2026-09-03 15:55:27.910,1,-0.071,-0.249,0.963
2026-09-03 15:55:28.016,1,-0.039,-0.193,0.982
2026-09-03 15:55:28.119,1,-0.014,-0.139,1.015
2026-09-03 15:55:28.225,1,-0.014,-0.056,1.020
2026-09-03 15:55:28.329,1,-0.035,0.026,0.986
2026-09-03 15:55:28.434,1,-0.053,0.096,0.969
2026-09-03 15:55:28.540,0,-0.075,0.159,0.949
2026-09-03 15:55:28.644,0,-0.077,0.216,0.931
2026-09-03 15:55:28.748,0,-0.037,0.187,0.955
2026-09-03 15:55:28.853,0,0.030,0.136,1.005
2026-09-03 15:55:28.958,0,0.067,0.091,1.046
2026-09-03 15:55:29.063,0,0.087,0.063,1.025
2026-09-03 15:55:29.168,0,0.072,0.002,1.008
2026-09-03 15:55:29.273,0,0.017,-0.047,0.989
2026-09-03 15:55:29.379,0,-0.052,-0.091,0.968
2026-09-03 15:55:29.484,0,-0.100,-0.119,0.945
2026-09-03 15:55:29.589,0,-0.140,-0.155,0.977
2026-09-03 15:55:29.695,0,-0.166,-0.161,0.993
2026-09-03 15:55:29.800,0,-0.217,-0.220,0.981
2026-09-03 15:55:29.905,0,-0.207,-0.216,0.982
2026-09-03 15:55:30.008,0,-0.204,-0.215,0.984
2026-09-03 15:55:30.112,0,-0.201,-0.213,0.984
2026-09-03 15:55:30.218,0,-0.199,-0.210,0.984
